,ts,ax,ay,az,wx,wy,wz
0,0.0,-0.3132182664544641,-0.08698282308309414,-6.5601404980075015,-0.06894915409258716,0.06761300492931296,0.16743053788442366
1,0.01,-0.058402574660457396,-0.012865690349771725,-1.2909026556897816,-0.07685825003745042,0.06419993975504265,0.15650048069264766
2,0.02,0.09117486243355953,0.028732064352763927,1.8482239069626143,-0.08116700717192514,0.06351279843131423,0.14759116919778886
3,0.03,0.16473397581934823,0.047680269984733945,3.425445723180571,-0.08297693521845104,0.06471759510786873,0.14008436407600647
4,0.04,0.1857624992278161,0.05185661430788799,3.8983667563837807,-0.08478686326497692,0.06592239178442327,0.13257755895422407
5,0.05,0.17174267928142986,0.04640191755163733,3.630855830903469,-0.08659679131150283,0.06712718846097779,0.12507075383244168
6,0.06,0.1392877529265328,0.04216757774289017,2.9084587612015107,-0.08815561428392481,0.07104797396593301,0.0941367397204847
7,0.07,0.09501082660047751,0.033484540496483285,1.9464029537362997,-0.08957659395048803,0.07645969261956423,0.05034243616286807
8,0.08,0.043896035704325945,0.015276482004654396,0.9045086737750294,-0.08810397720814722,0.08030113457337673,0.017592892724382872
9,0.09,-0.00681551713088005,-0.006120573662500198,-0.10069416818290677,-0.0835427439143962,0.08246646765781489,-0.003367505273731097
10,0.1,-0.05136598400405155,-0.024572375339018182,-0.9903501238113996,-0.07224675796632714,0.08623799572849065,-0.019366355498079642
11,0.11,-0.0873714543859162,-0.03820400039315943,-1.71532739769849,-0.05722296035019295,0.09089858279185938,-0.032618896149968
12,0.12,-0.11314713399666645,-0.04713645740746967,-2.251251858363094,-0.04489684185607131,0.09402941349862247,-0.046667584139003175
13,0.13,-0.12902381359034007,-0.05095409147971634,-2.5907601243548983,-0.03404191940917302,0.09632598208477652,-0.06115045601813125
14,0.14,-0.1374784235850678,-0.0519393765539364,-2.7403804023606364,-0.02687213554532059,0.09699098874028594,-0.06802590220422881
15,0.15,-0.13693704781390137,-0.048603691386294376,-2.717160896547213,-0.02156795655834979,0.09683001563244296,-0.0710500819715471
16,0.16,-0.123887779791517,-0.04089660009147235,-2.546210862416695,-0.0052570167524659496,0.09365311704450248,-0.07042209938866888
17,0.17,-0.10431277780535426,-0.030499296662058972,-2.252595304484405,0.018633384488664,0.08839939574331684,-0.06727916947987013
18,0.18,-0.0860826313565017,-0.020711407393043117,-1.8624359059224087,0.0318607501557413,0.08194389553303409,-0.06538999975184306
19,0.19,-0.06608519860385403,-0.010261115876601456,-1.406395952526187,0.03886055172309867,0.07478651684376496,-0.06423306727813335
20,0.2,-0.04323592702579793,0.0007865385633387227,-0.9127122531125609,0.04157275352254998,0.06935953673490601,-0.05913290407874398
21,0.21,-0.018747829358863786,0.011801469261535526,-0.40726941444207143,0.0418825882184671,0.06490210902146802,-0.05182332575438724
22,0.22,0.005847370484274882,0.021568203616044994,0.08804320436252011,0.04212476963717645,0.061140687109578665,-0.04205640288063441
23,0.23,0.0293820732436409,0.02968995498034569,0.5535798017146465,0.04229878165249176,0.05808058082065105,-0.029813388400091977
24,0.24,0.05121677085646957,0.036593482190364165,0.9725040885829687,0.042472793667807054,0.055020474531723436,-0.017570373919549544
25,0.25,0.07032136553633964,0.041631378845473216,1.3332410943867288,0.04264680568312236,0.05196036824279583,-0.005327359439007111
26,0.26,0.08597440423566775,0.04447919044982139,1.6274911465153916,0.04282081769843767,0.04890026195386822,0.006915655041535324
27,0.27,0.09775984709339158,0.04463932204107761,1.850797599758787,0.04088701147828558,0.04861336551053285,0.02276813951457472
28,0.28,0.10543830149445199,0.04254727764971006,2.0003485864611417,0.036824202919797086,0.05112755036852431,0.04226637006043766
29,0.29,0.10926162956113912,0.03942488372110457,2.0753178965050547,0.029045792492071437,0.0535679996865881,0.0604113159979571
30,0.3,0.10915556776796057,0.035062895474472944,2.078917638165972,0.017482778303310104,0.0559333441329371,0.07717784567917832
31,0.31,0.10472090965395425,0.03017181163580506,2.015636506433657,0.008349191359630009,0.0571751672305749,0.09204888989122094
32,0.32,0.09682916073733197,0.023823834689142738,1.8927511413718987,0.0004312293015231953,0.05785480822799485,0.1059714803838771
33,0.33,0.08621762346897968,0.016473571264515992,1.7180202997517755,-0.007104308247590394,0.05766761535831511,0.11680788796724385
34,0.34,0.07339931092608357,0.008491259463647653,1.4997978565485344,-0.01423925534051862,0.05657241223800433,0.1244115126341641
35,0.35,0.0583380808022115,0.00033616039477995033,1.2474041485829797,-0.019724683391118145,0.05597800725438268,0.12753028267003078
36,0.36,0.04227385826932703,-0.00804415017096886,0.9696434314202688,-0.02427781949276651,0.055666648455075414,0.12811425695183035
37,0.37,0.026646030171079617,-0.01586818329040532,0.6759670007959583,-0.03004863190648985,0.05658609621922092,0.1325833439790863
38,0.38,0.011076801538402646,-0.023156951927396974,0.3747026701532765,-0.0365139481464469,0.0582075366715669,0.13926831189382613
39,0.39,-0.004716121999984651,-0.02878946883180774,0.07461370481724616,-0.04466897043972577,0.05992994206817458,0.13819446295892465
40,0.4,-0.019946049335306158,-0.033507038762003526,-0.21698426294372086,-0.05371202284035685,0.061705409895443035,0.13304294445163353
41,0.41,-0.03420669350396608,-0.03738406099896725,-0.49345916378906407,-0.060800700975028765,0.06614924123631963,0.12978900896677864
42,0.42,-0.04698399374368258,-0.0401178979577175,-0.7478960112079229,-0.06694666730100943,0.0718801841801136,0.12745039147110362
43,0.43,-0.057946562048994864,-0.041502231289526716,-0.9746513605452886,-0.07309263362699009,0.0776111271239076,0.12511177397542864
44,0.44,-0.0650630815045984,-0.03757632791774424,-1.1684140224940698,-0.08123696850130248,0.07395877527752305,0.11788541414206688
45,0.45,-0.07312331068580274,-0.036850139779757665,-1.3287294824564235,-0.08535439759351872,0.07281319626712192,0.11163786697614476
46,0.46,-0.08049887613579898,-0.03707297089636591,-1.452456130582569,-0.08512123882131534,0.07479090391104552,0.106672265760575
47,0.47,-0.08194961877485503,-0.03131984433405371,-1.5370883517207303,-0.08297333025643856,0.07835641906072156,0.09547277453997388
48,0.48,-0.07994890030122884,-0.02277543404283836,-1.582513025741368,-0.07890913948608914,0.08351101247045639,0.0780344042066943
49,0.49,-0.08062219250929963,-0.019731916614750954,-1.5891738791360859,-0.07385825380474455,0.0855706193261411,0.0662902445561418
50,0.5,-0.0813307136327136,-0.018558296628117782,-1.559070133953,-0.06781909323656651,0.08453028368453462,0.06024941361983392
51,0.51,-0.07723318763398748,-0.012534744992348001,-1.4951222679563423,-0.06333914914702482,0.08313573498153115,0.050977971560743116
52,0.52,-0.07061285268005037,-0.004841627776471916,-1.4000259472963255,-0.0595788784920832,0.0815776953624371,0.040215405572136285
53,0.53,-0.06242005633964044,0.0030855547402825877,-1.277269343214083,-0.05675598160312119,0.08024069597119793,0.0257299022906384
54,0.54,-0.05317466516824323,0.010636445807501239,-1.1308892643400599,-0.05466067323233521,0.07907526776925287,0.008354659050004837
55,0.55,-0.043538480733958655,0.016265198676233324,-0.9647817774723967,-0.04981167591710129,0.0783303889373392,-0.0006007775437635723
56,0.56,-0.033455426437681735,0.021218171214237906,-0.7838718663405069,-0.04368343118947885,0.07778087955500658,-0.005644728097131237
57,0.57,-0.02151688719554289,0.02654004639912145,-0.5925429965549118,-0.034991552767271436,0.07634170684464751,-0.013325359995857437
58,0.58,-0.009617860206607601,0.031164434358188782,-0.3954316727661553,-0.024589872976163482,0.07430917807904028,-0.02276451199172974
59,0.59,-0.0010142586044163439,0.03214114359689803,-0.19673427719695108,-0.014743382846680109,0.07285187138804172,-0.027684828326326467
60,0.6,0.006944029499478956,0.03228243994680899,-0.0007277635690857709,-0.00519940375327738,0.07170799096880973,-0.030142927238195113
61,0.61,0.014719692104278965,0.032129093365094265,0.18848271131474215,0.0018922452335818323,0.0697184744442123,-0.032759127039741924
62,0.62,0.02293082404252513,0.03212921558598514,0.36780285447943617,0.007599062526728698,0.06725142690658656,-0.03546460647058753
63,0.63,0.03177454305582159,0.03245578476823782,0.5343291192392976,0.013305879819875565,0.06478437936896082,-0.038170085901433136
64,0.64,0.0427525022501552,0.031234961911295826,0.6840735564076974,0.025199707113152288,0.05925656819303374,-0.042117127840247896
65,0.65,0.04981695546182098,0.029333732895882595,0.8165272941683621,0.03309496515302191,0.05644643814155024,-0.04571227009309583
66,0.66,0.05484093611637474,0.0272903146102641,0.9299707800157075,0.038439318708917966,0.05526334471333267,-0.04901790778730305
67,0.67,0.05913116520849489,0.024523500151000657,1.0224625772366764,0.042588618336466315,0.05221297999188775,-0.05090030647078638
68,0.68,0.0624178281321072,0.021178494849378067,1.0929462204931326,0.04588243323699567,0.04782592072079552,-0.05176387311021685
69,0.69,0.06434182410992198,0.017304891380825804,1.141189154771411,0.047365934760588035,0.04507390252340551,-0.05374075661961367
70,0.7,0.06496278640434393,0.01295443155122029,1.1665805254861157,0.04763600926202437,0.043417828843932166,-0.05646388041616179
71,0.71,0.06421037050343648,0.008129916518172653,1.169870470458241,0.04665644055385272,0.041328022959830034,-0.05639682403705605
72,0.72,0.06221853342909853,0.002985369722413955,1.1509312540851415,0.04498124231305993,0.03899677461561697,-0.0547765789424867
73,0.73,0.0591158463161022,-0.002582728012665167,1.1111899616642658,0.046669682133020224,0.037329606078194584,-0.047568758785512005
74,0.74,0.054889836846832726,-0.008143748760121224,1.051584865947396,0.050110283224171284,0.03600836504468975,-0.037450300668272936
75,0.75,0.04999872256030289,-0.013664544214259871,0.9744602828555065,0.051044619265413434,0.039332789031705936,-0.030473933133319794
76,0.76,0.04405466045007138,-0.018741155016276163,0.881426414022269,0.050727138110487235,0.04497760740818915,-0.025066961869111056
77,0.77,0.03726598588018132,-0.023241552466178657,0.7750229291766909,0.0477308243083478,0.04804978297739679,-0.015659259007815642
78,0.78,0.029613317947601674,-0.02701404092022116,0.6576819157340832,0.0434470525889957,0.04988553590040714,-0.0043287881921016055
79,0.79,0.021650765007983633,-0.029678995414574506,0.5319675209560069,0.03465125264456319,0.052144016187498685,0.007603794149047645
80,0.8,0.013268271364575642,-0.03160185774252261,0.400846735411535,0.023387239240371338,0.05463374089900098,0.019865749379110717
81,0.81,0.004347952848971553,-0.032045117670958426,0.2666355905363758,0.01025817803078492,0.05439108542059856,0.032208474922819585
82,0.82,-0.004451639538527029,-0.03208382620259066,0.1324839984628754,-0.003807469450911157,0.052776288290573535,0.04459176155388282
83,0.83,-0.012691020769616021,-0.031275481078359035,0.00041339081253652377,-0.016763845983466696,0.05137372530748974,0.05689487256092389
84,0.84,-0.02020068640938679,-0.03032179427862696,-0.1267717484614173,-0.029091369132444905,0.05009147933218299,0.06915253145143219
85,0.85,-0.028144139343616193,-0.02882132415899596,-0.24718556703515748,-0.03723905558856026,0.04870003507795633,0.07566721650875878
86,0.86,-0.034774124860702395,-0.02723143011076802,-0.3588216702235719,-0.043233492839261416,0.047252337164892126,0.07922339989444628
87,0.87,-0.03804826279929338,-0.024180264523280558,-0.46124565334757756,-0.05190990048381229,0.0444896298921803,0.08204013232722361
88,0.88,-0.039819442820920474,-0.02088120858347381,-0.552159272561951,-0.062427053407109925,0.04082437825289749,0.08434934951913342
89,0.89,-0.0435101962248276,-0.018109502022357553,-0.6296269257217668,-0.06596723134752132,0.03400062290949528,0.07961906442413891
90,0.9,-0.04627093334519575,-0.015522895292705972,-0.6934670753831693,-0.06618170414251681,0.02567130791504501,0.071533269379037
91,0.91,-0.047206129496911206,-0.012198799346479288,-0.7431544370663222,-0.06794403098700573,0.02133319729265084,0.06378219073267061
92,0.92,-0.046547244793218326,-0.0085133391440554,-0.7790679167501768,-0.07065062107308702,0.019429907691947308,0.056235304717894716
93,0.93,-0.044723130909569385,-0.0035995392458857828,-0.8002676723767091,-0.0754203458204728,0.01720386715923547,0.04371172346630442
94,0.94,-0.0419693046329108,0.0013673987250032004,-0.8083155256048775,-0.08142636763741043,0.0147844238211126,0.028205945340838583
95,0.95,-0.03847811780900719,0.005563807314661832,-0.804404189533727,-0.08743238945434803,0.01236498048298973,0.012700167215372751
96,0.96,-0.03431927826339184,0.01003741459897665,-0.7874474315685659,-0.09161191266508152,0.012367664405618477,0.004260278070794435
97,0.97,-0.030066819472992123,0.014298107599860218,-0.7588889070872707,-0.0948070717454784,0.013675717621437771,-0.00037155579353333884
98,0.98,-0.026149948620756026,0.016163438224731173,-0.7204272453768261,-0.09493818975590017,0.013952542831711696,-0.005754771888854361
99,0.99,-0.02241982906278506,0.0181286093026096,-0.6717998221092581,-0.09328211218339152,0.013627872796192531,-0.011576254630625536
100,1.0,-0.018419637772932616,0.023496358273996938,-0.6129598256732274,-0.08533295594053578,0.01556544814471245,-0.017509193448015516
101,1.01,-0.014626690178990511,0.028915494202997164,-0.5456582306657857,-0.07449258375280951,0.01854236214894676,-0.023493338296644264
102,1.02,-0.011362898690361372,0.03100014034002653,-0.47290126106352304,-0.06133238531887504,0.01761936592765094,-0.02711695333846462
103,1.03,-0.00832357214438836,0.03196129371527746,-0.39441937006391137,-0.04658065544069484,0.014020811671001537,-0.029121112001275817
104,1.04,-0.005273134643136574,0.03357859873133076,-0.3103430197547385,-0.03182892556251465,0.010422257414352137,-0.03112527066408701
105,1.05,-0.0022126597203053393,0.0351431281131219,-0.2228331661223622,-0.017077195684334454,0.006823703157702735,-0.033129429326898205
106,1.06,0.0008466027727644424,0.036152590237915325,-0.13388583880973537,-0.0023254658061542532,0.003225148901053333,-0.035133587989709406
107,1.07,0.003280860449461704,0.034909998489029176,-0.046183581861323895,0.0048620965902344175,-0.0015117013780292755,-0.03629986396975065
108,1.08,0.005520338413169905,0.032270763969291794,0.039254142568997404,0.00415782425797015,-0.007436156783908773,-0.03659196157254968
109,1.09,0.008213164224656296,0.03021489610945967,0.12218784183655784,0.003835000929274854,-0.012362167130392392,-0.03818487520485473
110,1.1,0.01117496118292793,0.028042635268977725,0.20084905706973427,0.0038990045357194937,-0.01627565564927113,-0.04109694466970009
111,1.11,0.013909962067567606,0.025253310143982997,0.2737125035570485,0.00672670158681646,-0.021391180600417628,-0.04535405921538742
112,1.12,0.016455458534234323,0.021654646021102713,0.3395874947604624,0.012667153087482504,-0.02786056202226841,-0.05112610121019651
113,1.13,0.020482745218111952,0.017143459056419983,0.3989954496521014,0.01574406695109101,-0.029971004924637182,-0.0539896150240889
114,1.14,0.024243861356955138,0.01199170034073192,0.44937809811490054,0.01742012882099378,-0.029949040822315195,-0.05543026732281951
115,1.15,0.025142834933713294,0.004278748414722675,0.4903296026161194,0.023563055179952767,-0.0317577120658572,-0.05147837593163742
116,1.16,0.02541224427490603,-0.0033361748709841467,0.5209266392941296,0.032272441705903765,-0.03461818434499325,-0.04442817058604006
117,1.17,0.026965115810681676,-0.00875247869131208,0.5417062659737892,0.035365916370416084,-0.03477872633536039,-0.04283265019433953
118,1.18,0.028613704280175876,-0.013165070931027964,0.5523964486931812,0.03408790851358445,-0.03283761531595667,-0.04548311167053984
119,1.19,0.029951110763959517,-0.01756671282354519,0.5528485776161967,0.03073952394555873,-0.029763951098121126,-0.0433035741281993
120,1.2,0.030377846530390284,-0.021916327781186924,0.5439571813619589,0.025773634522652848,-0.0258054670854295,-0.037350546080814215
121,1.21,0.029682307735722196,-0.02574663252875465,0.5260767724359899,0.02354752520006221,-0.02140909914237736,-0.031003134699365026
122,1.22,0.02787261160937489,-0.0293014023109723,0.5006352486748293,0.02346886392613108,-0.016669516431218886,-0.02434660445065262
123,1.23,0.024877640569777308,-0.03286216644308877,0.46899630120181074,0.022845517812502724,-0.012087044327939691,-0.017731323242323266
124,1.24,0.021280561450941676,-0.036494070064579553,0.4317249662160847,0.0167681248238444,-0.009077754655099263,-0.011529077579327286
125,1.25,0.017281000281567236,-0.03895209291949608,0.38913973457436013,0.010142933618414807,-0.006677284531142645,-0.005463950337455408
126,1.26,0.013142467179564845,-0.040309697451993795,0.3422825681619045,0.00283397989061244,-0.005036743844102142,0.000430025493876678
127,1.27,0.00933176387097254,-0.04024386368663922,0.29205508648500117,0.0003202150781684556,-0.0015559833292075119,0.0059150358187140244
128,1.28,0.005508506799384983,-0.03953228204248901,0.24021053530194045,8.381137301857137e-05,0.002798745894490996,0.011205817687664493
129,1.29,0.0011171626522205108,-0.038165190883683336,0.1873334231381164,-0.0018635075090621992,0.0015297681131167145,0.0138166128665728
130,1.3,-0.0030006667043089258,-0.03621979522440793,0.13414085062879874,-0.004883697704499891,-0.003265693039157425,0.014746856678181652
131,1.31,-0.005940882297661401,-0.03378424420966815,0.08161684134389585,-0.006507980866010789,-0.004443877510640175,0.017777198003868153
132,1.32,-0.008239331417589365,-0.030661435324682774,0.029743730047230396,-0.007385237328063783,-0.0036862580967623494,0.02193141712109206
133,1.33,-0.010193712136692113,-0.02637695445454961,-0.020516249302768196,-0.008852748472815735,-0.00323139978142642,0.024859631513976917
134,1.34,-0.011787385849978115,-0.0213599006404081,-0.06922497833901221,-0.010765176247914955,-0.003004753883055252,0.026863719581851363
135,1.35,-0.013871942690862659,-0.015409549840916088,-0.1156755556616329,-0.014029329571916549,-0.0036730304976122265,0.025514340598628657
136,1.36,-0.015323433915631542,-0.009394847156786559,-0.15986335332637225,-0.01791767541294527,-0.004754559592558033,0.02261641572819415
137,1.37,-0.01495332464879458,-0.0037278509878876723,-0.20063442794561406,-0.020064985673663927,-0.0020190065811695177,0.02067270364132575
138,1.38,-0.014165996838860148,0.0018198265851684901,-0.2378588767744589,-0.02141352760468527,0.0024677824950507183,0.0191667740787922
139,1.39,-0.013151048826558816,0.007733485990536911,-0.2708869786278627,-0.022543092501182853,0.006565669855115714,0.017620770806314964
140,1.4,-0.012427850137470883,0.013451183496274447,-0.2990749978320773,-0.02356732010382185,0.010476478901485184,0.016055490370049653
141,1.41,-0.01215597817574763,0.018315342606729745,-0.32238778058557915,-0.02424286825369577,0.01249169045170308,0.013119039986988356
142,1.42,-0.012118685996287905,0.022800337354019054,-0.3397651047542334,-0.024710010934198504,0.013373904680766952,0.009363042268735524
143,1.43,-0.0121598027038211,0.027160540081187054,-0.3505833529597101,-0.025177153614701242,0.014256118909830825,0.005607044550482698
144,1.44,-0.011824097616963746,0.03160656854048852,-0.3548379254289682,-0.026173214339450475,0.01590929072232535,0.002425541868086719
145,1.45,-0.009868035634606255,0.03742068740554727,-0.3522469568343367,-0.029985822195452844,0.021667897003448986,0.0023032888421605905
146,1.46,-0.010316899702899772,0.03890071113600968,-0.34592291913472684,-0.03107707892814521,0.025281442009811018,0.0012952002407092028
147,1.47,-0.011164206663624042,0.03901838931374763,-0.3341224577259408,-0.03089005256411524,0.02788740091474183,-0.0001289863177349436
148,1.48,-0.010551691947921318,0.03986712938970001,-0.31704494051531334,-0.02619426587352831,0.02770078440906821,-0.0012930990298486596
149,1.49,-0.009517056467776949,0.04037979426928907,-0.29486177221852017,-0.018428217276254148,0.025612550322564428,-0.0022801132125482605
150,1.5,-0.010007601350034442,0.03852806675202202,-0.2675325821478082,-0.013328971126257244,0.022461310496466626,-0.0030640578752890394
151,1.51,-0.010342401531114773,0.035990669192377214,-0.23654684384036292,-0.009677088600068029,0.01873314160651634,-0.0037377898611993437
152,1.52,-0.008975081463788061,0.03421320980471544,-0.20384874944532047,-0.006560575021915561,0.01619272633781901,-0.0059152020661667705
153,1.53,-0.0070134828688648235,0.03220502020704474,-0.16925788987216794,-0.003760241641641332,0.014353779049988902,-0.008980663365035755
154,1.54,-0.00600274321376381,0.028792131578159928,-0.1319292756825071,-0.0026616123326968005,0.01293444045692195,-0.013158666343561855
155,1.55,-0.0048847757686793425,0.024760706822114165,-0.0940406957287551,-0.002504086952623995,0.011747160655911469,-0.01795194512908578
156,1.56,-0.0028643051279867225,0.020611664388089396,-0.05716469993487473,-0.0013557898874801304,0.010295124515419491,-0.01858012761053028
157,1.57,-0.00055934991565909,0.016221411744354323,-0.02148072256099293,0.00032576515736895337,0.008700589923636056,-0.01696655159820861
158,1.58,0.0011479922628424568,0.011408982767328078,0.012996407108832677,0.005666862416889024,0.005419193798942013,-0.016051570159762198
159,1.59,0.0028158815893267316,0.006394818216851764,0.045607666695380224,0.012769158410739716,0.0013259752597276648,-0.015472795767756418
160,1.6,0.004538201649819561,0.0004720441315432689,0.07616614061101853,0.020341122201425383,-0.0015362747799655039,-0.017018792359162913
161,1.61,0.0062418962782699,-0.005165569919508508,0.10409790400567916,0.02812896453425576,-0.0038327213157917633,-0.019541420657877142
162,1.62,0.007420935436884155,-0.010503148786382779,0.12920680608946616,0.03477133371953302,-0.004087748844891307,-0.024719692907031597
163,1.63,0.008432968006055207,-0.015186681919456126,0.1512322541867796,0.040730807101759865,-0.003125745250267901,-0.03148117826949719
164,1.64,0.009884099582523585,-0.018146927613553108,0.16975192442685536,0.04363490220173953,-0.0035743563389104343,-0.034058563646162936
165,1.65,0.011053011150231374,-0.02078109064311744,0.1850462048343281,0.045134620391662786,-0.004671343670087554,-0.03471276542112328
166,1.66,0.01161921955851692,-0.02367108791023499,0.19720901753876782,0.04663433858158606,-0.005768331001264673,-0.035366967196083635
167,1.67,0.010948302695851505,-0.028777982551746028,0.20651182519123554,0.04730804657469955,-0.007528552161938227,-0.043196784168691535
168,1.68,0.01008999071203363,-0.032917504613459284,0.2124189668267161,0.0476045452499691,-0.009591648494566812,-0.054303447994121734
169,1.69,0.00980932889392678,-0.035327133563130234,0.21392555996215265,0.050771831448697874,-0.010071356258282396,-0.05744510032752555
170,1.7,0.009486604047203945,-0.03603361630428095,0.2123288369128425,0.055272764106772385,-0.009815488664559188,-0.0568865452132569
171,1.71,0.008875191237955334,-0.033372525576195515,0.20842331893410118,0.059030182355867,-0.011147136829919498,-0.05731058859165927
172,1.72,0.007988754703635786,-0.03045166502922023,0.20187213131463233,0.0624423547137806,-0.01321593720966754,-0.058190894939787824
173,1.73,0.0070029732237048645,-0.030579900045054658,0.19218369040807343,0.06572532057178243,-0.01444811880109869,-0.05254600524316997
174,1.74,0.00582732704124893,-0.03062978969276948,0.18006226524250823,0.06894889783421829,-0.015295756156008176,-0.04390186837899901
175,1.75,0.003256471544654188,-0.031248104743551025,0.16582447427212266,0.06480054909329434,-0.0199535607654548,-0.035993794025248306
176,1.76,0.0008433651196392746,-0.030511533890915987,0.14970448077298376,0.05609544350239718,-0.02696651730246321,-0.02854069682195155
177,1.77,0.0008170433039910649,-0.023796241353652027,0.13246319698591158,0.05022998775752252,-0.032268171926245384,-0.019704208054253616
178,1.78,0.0012709568796376177,-0.016350363106111414,0.11371430964950545,0.04601657758899566,-0.03657422888523067,-0.010062892621913556
179,1.79,-0.00012828275540331148,-0.01266959051625384,0.0934749016431242,0.037517738869295394,-0.04072832966236424,0.004508437068720512
180,1.8,-0.001574918878772368,-0.010204439440605848,0.07212696001939355,0.027030827674310608,-0.04481193576224878,0.021366871895430368
181,1.81,-0.0023351323149348796,-0.006964612626900034,0.05033340333878014,0.017829296662868317,-0.04501510594071816,0.037858207294648116
182,1.82,-0.0026143726770138077,-0.0038204914884030295,0.028293253318729016,0.009293182528958796,-0.04320944823514637,0.05415950230121515
183,1.83,-0.0028517780274861355,7.861164342072482e-05,0.007225802914423488,-3.3249904603169238e-06,-0.042594507765272765,0.06352874001353252
184,1.84,-0.0028485248387699856,0.003297637688927639,-0.013595040773929399,-0.009654221979537105,-0.04253451379771329,0.06966721828611679
185,1.85,-0.002573605415972823,0.005355100623087673,-0.034217701879451244,-0.01930511896861389,-0.0424745198301538,0.07580569655870104
186,1.86,-0.0022002626060513113,0.006846195336365544,-0.05393117267475307,-0.028956015957690682,-0.04241452586259432,0.0819441748312853
187,1.87,-0.0018400408723242801,0.008168880858028716,-0.07218617135766021,-0.03860691294676746,-0.04235453189503483,0.08808265310386955
188,1.88,-0.002642177754226856,0.011870421926405068,-0.08840122066676771,-0.05148590239414786,-0.041366777851454165,0.08483195980135755
189,1.89,-0.003845001299145358,0.01638913476574349,-0.10240439737667477,-0.06782714644706632,-0.03938396507348805,0.07151101512037443
190,1.9,-0.002719923904779666,0.01870063560122418,-0.11472919830005593,-0.07851192650078967,-0.03773821318451349,0.0617904497465227
191,1.91,-0.0006757655239323251,0.019610099110331063,-0.12479967795906027,-0.08346966481976745,-0.03643372781445952,0.0557151869072208
192,1.92,0.0005744655041773077,0.019851653553468247,-0.13140710308924483,-0.08992378045867956,-0.033888544803273794,0.041842809011840884
193,1.93,0.0010302574476654287,0.019344297104792955,-0.1352894345659181,-0.09717939549745823,-0.03067881121280865,0.023794089391092375
194,1.94,0.001276691644065024,0.018666736942960255,-0.13756713273294752,-0.10455743086450253,-0.030473565748996605,0.016897056142588174
195,1.95,0.0009743328847975239,0.017857988761296236,-0.13749463420027966,-0.11200477703603867,-0.03196937346887306,0.016313781114234812
196,1.96,-0.0003593949362531092,0.01802596721103912,-0.13577227353928742,-0.11821371952155273,-0.03312580875241527,0.010362962916609406
197,1.97,-0.0018887540898848698,0.01809797304042288,-0.13140211648615865,-0.12383505023154052,-0.03412121476728694,0.0018652921800990949
198,1.98,-0.003301266728130287,0.01795426528607167,-0.12518298334791683,-0.12233942312394727,-0.03742089936542957,-0.005504905424610559
199,1.99,-0.004379578254250651,0.017672765457068838,-0.11662169313758067,-0.11669796254167206,-0.042062892788547725,-0.012218317367323343
200,2.0,-0.006172899466553441,0.016432743443138453,-0.10564440246971027,-0.10667555045977578,-0.04988545687754424,-0.015588060785408012
201,2.01,-0.007229596108335468,0.015503646569136494,-0.09305483171708914,-0.09443825805030842,-0.059316024022249815,-0.01726734366364004
202,2.02,-0.007170785571142641,0.015017524289421118,-0.07945519188098857,-0.08544618955372751,-0.0653339559236199,-0.03061109896338308
203,2.03,-0.006227656167566398,0.01512030692475056,-0.06543179079031335,-0.07827718374879937,-0.06943477881823103,-0.05050758068826671
204,2.04,-0.004892310324931622,0.015462096866069074,-0.0510212407762616,-0.0680778580949024,-0.07108877945439987,-0.06886738395063206
205,2.05,-0.003348300492709451,0.015839514341441395,-0.03680319200464972,-0.05478204305226938,-0.07024252944476057,-0.08565695410552322
206,2.06,-0.0009774345698489399,0.015338669848294942,-0.02247102250393515,-0.041536388374493464,-0.06832798876230367,-0.09671097688014857
207,2.07,0.0015055706566699913,0.014356984757024205,-0.008803410615720072,-0.028341846024889088,-0.06532488296260261,-0.101920600779708
208,2.08,0.0030600800432224484,0.013783277953412066,0.003749914263032228,-0.015931061310762516,-0.06027947028116552,-0.10729473757443853
209,2.09,0.003890188134443354,0.01311163060150565,0.01511868373516452,-0.004432596943148619,-0.05285674344329954,-0.11286037293292694
210,2.1,0.005296973931375191,0.01131256617058648,0.024011834764751248,0.006593688909403704,-0.04605488509633257,-0.11905895341942127
211,2.11,0.006122884496774155,0.009354802937053914,0.031118600947110678,0.017342901428300406,-0.039617351039962966,-0.12562894474110528
212,2.12,0.0060982716897757675,0.006456079622433181,0.03648291304161481,0.030464944679028275,-0.034836495503115836,-0.12610120189320873
213,2.13,0.0052367198904743,0.003682547256853236,0.04124352871227502,0.04490612970738688,-0.030976647022477512,-0.12318350973958453
214,2.14,0.004303688266120965,0.001110272050364321,0.04474032709013122,0.0565105885641869,-0.02956373105838672,-0.12209584727665575
215,2.15,0.0029087821281260527,-0.0013759360884915174,0.0486143856117189,0.0666096242407032,-0.02944937854674813,-0.1219793638949517
216,2.16,0.0009480725618576423,-0.003879907381006808,0.053595348639873586,0.07670865991721951,-0.029335026035109558,-0.12186288051324765
217,2.17,-0.0014915557098274434,-0.009203148617820227,0.057790893220981326,0.0903037649454615,-0.029844053475966494,-0.12156316912766295
218,2.18,-0.003579626343903338,-0.01422209218825799,0.062273596879914815,0.1055147604870541,-0.030641208425207463,-0.12117876937824335
219,2.19,-0.004665301853189039,-0.018716177667449724,0.06647903782794963,0.11313451689400116,-0.030337426879838744,-0.11595891890868715
220,2.2,-0.0051595025213987105,-0.02209303102667766,0.07060410977553966,0.1172407155739121,-0.0295240837386618,-0.10850101020646387
221,2.21,-0.0054175583414513145,-0.024057200948380396,0.07427719611081955,0.11615111257949914,-0.030641456240096544,-0.1020586080699248
222,2.22,-0.005330973826731095,-0.025426465769695115,0.07695707142798634,0.10973097075227096,-0.03373961156450244,-0.09665804654291264
223,2.23,-0.004726154747542296,-0.026908585842208375,0.07847029172385804,0.10331082892504273,-0.036837766888908316,-0.09125748501590047
224,2.24,-0.003769512832000153,-0.028647269158533103,0.07845330587450836,0.09688999368527344,-0.039923807370063014,-0.08527314085935331
225,2.25,-0.004546816307910209,-0.03943149264015411,0.07586398391119517,0.09042299965932443,-0.042203392204523016,-0.04042780706646195
226,2.26,-0.0029667254900200154,-0.039476389776946126,0.07417440315110653,0.08879359041351671,-0.04335836800775979,-0.01080119356639421
227,2.27,-0.00022353690580779063,-0.03396000081518247,0.07178123752566204,0.09234022665074566,-0.04331005172190672,0.002541924758015207
228,2.28,0.002918041778599673,-0.029865434703914402,0.06647902181352752,0.09270421549207583,-0.040220656739163294,0.017607684911097748
229,2.29,0.00539954614485645,-0.026970511096998582,0.0582605689759446,0.09153511992326127,-0.03566637112912833,0.033503243343187
230,2.3,0.006868723973245068,-0.024115027916405685,0.04836805573673478,0.08270593540855678,-0.03265648357737607,0.04990047972423969
231,2.31,0.007495423957739984,-0.021953693986071377,0.03686455639722228,0.07030174311652436,-0.030367375524223927,0.06653185210318056
232,2.32,0.007604836960856102,-0.01945962047373567,0.024456111325303884,0.051425479248420114,-0.02707784304229969,0.08031204820718643
233,2.33,0.00725540497464949,-0.01718287448242951,0.01180972853338828,0.02771833275437611,-0.023041573918990213,0.09196406977415553
234,2.34,0.006308203901101028,-0.013970271068005146,-0.0010461127581875476,0.005767307265814986,-0.021570042656250392,0.09741923949976458
235,2.35,0.005142755542387996,-0.011317255452910274,-0.013025735485723389,-0.015208277546034469,-0.021523099805408872,0.09943235635159907
236,2.36,0.0041152971509284455,-0.008095538243416925,-0.0243482370534865,-0.033804750029441034,-0.02158001342791969,0.10619201743507012
237,2.37,0.003114641888202174,-0.005575570718725583,-0.033812112554841414,-0.05113586129894535,-0.02169216443944388,0.11547618856330864
238,2.38,0.0017732324987775484,-0.002712056026694519,-0.04199684993620351,-0.06378606493828816,-0.023229165309571538,0.11885868341903467
239,2.39,0.0005525396202754138,-0.00031978628302950854,-0.04785886589130533,-0.07395873052777792,-0.025520319010503084,0.11911750468871303
240,2.4,-0.00020013154352578795,0.0018388011812125495,-0.05187720713294941,-0.07737982647192056,-0.026774409389919433,0.1211335807940901
241,2.41,-0.0007326759342989413,0.004064258630609507,-0.05371024761720318,-0.07738752722348931,-0.027504191031960282,0.12403807330089395
242,2.42,-0.0005682467015986685,0.005676555733520872,-0.05285344909052071,-0.07889533940315611,-0.027420877508919687,0.12552212080145286
243,2.43,-0.0005551500574737149,0.008316428679391627,-0.05086425535028919,-0.08109714784537585,-0.026961401925450167,0.12634902810093634
244,2.44,-0.0010201789238543908,0.012573493622462687,-0.04859761157370216,-0.08329895628759558,-0.026501926341980647,0.12717593540041985
245,2.45,-0.0017280965169148288,0.01801205293933507,-0.04621133392130807,-0.0855007647298153,-0.026042450758511124,0.1280028426999033
246,2.46,-0.003253850067456627,0.026611826106955352,-0.0440154477570798,-0.08967146572456905,-0.02521303570755529,0.1250413315533159
247,2.47,-0.0077530640382897364,0.04538111158118442,-0.042724364377859064,-0.1034007481277608,-0.0225876381832994,0.10368780298587386
248,2.48,-0.006948708038736911,0.048895097822896694,-0.03895666292591963,-0.110927862625948,-0.020116841869985552,0.0922393574442561
249,2.49,-0.004151034175557802,0.045724996073489316,-0.03467347236935789,-0.11374167881125068,-0.017763533770126086,0.08831821716583951
250,2.5,-0.0018010569902924128,0.04188733247311991,-0.03165236733037141,-0.1126223325109704,-0.015814332060551224,0.08329611192893202
251,2.51,-0.00025499493008278654,0.0388967438360788,-0.02940247575380539,-0.10881800552685868,-0.014140994329671404,0.0775224309160532
252,2.52,0.00020445063575637475,0.03785705607953391,-0.027556473918451063,-0.10501367854274696,-0.012467656598791585,0.07174874990317437
253,2.53,-0.00018149583495711045,0.03907918959362636,-0.025537908905625798,-0.09544178174810568,-0.010950010046435477,0.06195355900425824
254,2.54,-0.0008786071361047733,0.040211675881844045,-0.023428804934700072,-0.08324215664095239,-0.009503297029563968,0.050326151810830194
255,2.55,-0.0012384098513493584,0.04072512986322424,-0.02131423734997654,-0.06224709711794475,-0.007862827405628558,0.04179542594628074
256,2.56,-0.0016217955156511061,0.03981490507024228,-0.018868797245709105,-0.037209295954953855,-0.006133299314951909,0.03468806156248426
257,2.57,-0.002540377809910242,0.03404707052377827,-0.016533961551643554,-0.0228048709511098,-0.008432526574049963,0.025561719643888075
258,2.58,-0.003300591518143546,0.027937304018680015,-0.0135523473232039,-0.013462089949221226,-0.012649500844664385,0.015474314618320809
259,2.59,-0.0031613059475576804,0.022116110372322285,-0.010108565307795978,-0.0017828426066065683,-0.011917292280617012,0.008530092499025524
260,2.6,-0.0027754458974035513,0.0173054904199569,-0.00594082433514012,0.011051892274711216,-0.008737490531709994,0.0031403154906036487
261,2.61,-0.0030709626037504177,0.012614039702391144,-0.0015686334097583347,0.025057114944258958,-0.01143986910430711,-0.0015214516187478575
262,2.62,-0.003266888912468383,0.00821393569753235,0.003191819586363687,0.03982207375075805,-0.017960232793236733,-0.00571068459835976
263,2.63,-0.0027915864123550095,0.002312891474972746,0.008275070139440588,0.0528835625832747,-0.02154615064981639,-0.007250367723247783
264,2.64,-0.001908279585000108,-0.003178078594648682,0.013454720017849224,0.06508960600148711,-0.023658453902588646,-0.007459504781688165
265,2.65,-0.0008158410677031685,-0.007473298855087601,0.018498159712870946,0.0772956494196995,-0.0257707571553609,-0.007668641840128549
266,2.66,0.00034594804380531983,-0.011525170264232668,0.023095793693996697,0.0895016928379119,-0.027883060408133157,-0.00787777889856893
267,2.67,0.001428459881263899,-0.017585879638291026,0.02747110327397638,0.10024085846024798,-0.029085049739318844,-0.005808591649347405
268,2.68,0.0023918254914906626,-0.024639456340926683,0.031185399461780474,0.10939852740656444,-0.02930559505030688,-0.0012830564142260507
269,2.69,0.0029149080667482553,-0.030788863311671532,0.03408271170999386,0.11529072308791685,-0.032050252529729,0.006391269746995245
270,2.7,0.0032089238832213483,-0.03622048258947566,0.03593883499040223,0.1178031472947867,-0.037407371240053784,0.01732460092452592
271,2.71,0.004132163748754671,-0.04044903995893687,0.03636841519312644,0.1167463880526012,-0.038970836108348485,0.031213463560105837
272,2.72,0.0050980527589982,-0.04379077906129415,0.03553897929057284,0.11300147802199667,-0.03767708903671313,0.04732830150139746
273,2.73,0.005488468302815004,-0.04630237962446301,0.03368010231577618,0.11243987518994827,-0.037077255765983766,0.06352002807179916
274,2.74,0.005523806719693329,-0.04823928180571406,0.031028033549734775,0.11350794852577273,-0.036832667752264944,0.07975111734225629
275,2.75,0.005492473906626287,-0.05002741918544848,0.027686889386677117,0.11257828413019264,-0.03671106772166671,0.09565298973150207
276,2.76,0.00522915624279018,-0.05124743805470962,0.02413887187979255,0.11064449761416956,-0.036651285092050935,0.11138938797083772
277,2.77,0.004644021327967963,-0.051074336384216185,0.020583985582426773,0.10364915021824354,-0.03580671584856377,0.12757808740262114
278,2.78,0.003878968358250286,-0.050273868265288166,0.017229092392085237,0.09428609483402298,-0.03459503741112265,0.1439783652727329
279,2.79,0.0027652602506142154,-0.048603281389594286,0.014075794373206591,0.08165633063669235,-0.03354327603367087,0.1560762346926055
280,2.8,0.0016567415760105402,-0.04638013140570073,0.011204911369531303,0.06689554092809957,-0.032595835963693955,0.16536744374209747
281,2.81,0.001333929922895822,-0.0426033212394601,0.00815051868210861,0.05108174657274278,-0.03014630812714432,0.1738504878657377
282,2.82,0.0010166410267906376,-0.03858473890189367,0.005522843143800634,0.034786188394883115,-0.02700955488624084,0.1819637856401215
283,2.83,0.0002186350191051528,-0.032787667997868475,0.003379538568760591,0.01768716801255913,-0.026334526702971685,0.1923549585828584
284,2.84,-0.0006769149545197416,-0.027231703405394436,0.0016493890691866254,0.00021764401870835728,-0.02679468324820837,0.20379653684869897
285,2.85,-0.0012157314684593955,-0.021728842441252096,0.00026523290328120874,-0.016326023877769248,-0.024326899106141397,0.21240038697105715
286,2.86,-0.0015810191633408438,-0.016027915691029754,-0.000986255517161245,-0.03194086818938211,-0.018921789851490938,0.21815741366742164
287,2.87,-0.0027682098439174145,-0.00963499133159634,-0.0017294155801683407,-0.04378784333112567,-0.019385812962432702,0.2221141115212905
288,2.88,-0.003803977533356319,-0.003352745395298326,-0.0027400554370337563,-0.0537907287957482,-0.022722336662194254,0.225189683283941
289,2.89,-0.004032094309208091,0.004067455292941852,-0.00428452750895326,-0.06458451858537001,-0.023379492901063646,0.22355793628645015
290,2.9,-0.0038723211949720257,0.011496507565036219,-0.006189113543909814,-0.07590623734163715,-0.022248170242825938,0.21878405205420104
291,2.91,-0.003382668145740368,0.017729945482832365,-0.008511227192090045,-0.08471261296551033,-0.021123014644342568,0.2123864172361908
292,2.92,-0.0027894240274119173,0.023602552605483215,-0.010917790923326828,-0.09097022233503706,-0.020004108051646118,0.20434345592368985
293,2.93,-0.0036863627889491403,0.03470378749056651,-0.012676984275911136,-0.09959932585759598,-0.017209516997528998,0.18898752498036586
294,2.94,-0.004472549020442501,0.04485236388011293,-0.014167959418961887,-0.1095681936825722,-0.013468256005113177,0.16950016674951898
295,2.95,-0.0037362001064409466,0.04893765334910585,-0.015662629956092265,-0.11425221705731745,-0.013842042377106154,0.14797217190816642
296,2.96,-0.002537780454316604,0.050754333454411514,-0.016968009197357817,-0.11615508297412674,-0.016381378705216585,0.12537028893601046
297,2.97,-0.0007540693638076897,0.05320458723966209,-0.01809255045300818,-0.1190933679083629,-0.012836357554127324,0.10838018521490107
298,2.98,0.0006623414347160525,0.05551312860687053,-0.018843752676592763,-0.12260627739137785,-0.0059147119522117994,0.09450444009229664
299,2.99,0.0015463726741832546,0.05398703439560408,-0.01938839485625069,-0.12169162199273195,-0.00277916451616968,0.08442689485238869
300,3.0,0.0017905824411296668,0.05269146357406013,-0.019445475009800057,-0.1183015615947665,-0.0017603847793514539,0.07647288325441237
301,3.01,0.001295390430518672,0.05686461345703321,-0.01901533247892267,-0.1145279759296354,-0.001438635739159531,0.06695540870917926
302,3.02,0.0005068926668115163,0.06137486172922307,-0.018094147285202426,-0.11052593967852543,-0.0015320798680287199,0.0565066421291433
303,3.03,-4.3414393030361594e-05,0.06274578009470148,-0.017573454684978215,-0.09757730530293786,-0.0009961740561720287,0.041966638101823835
304,3.04,-0.0005217766503780061,0.061638826764253384,-0.016564641817197703,-0.07925612992814411,-8.233594956445593e-05,0.02496979622203836
305,3.05,-0.0010390428192790496,0.058552991189211256,-0.01452708542513193,-0.060934954553350365,0.0008315021570431166,0.007972954342252883
306,3.06,-0.0012892459238433825,0.05068584343404528,-0.011550661606554918,-0.04976633970601538,0.0009984356822537923,-0.002168813335028245
307,3.07,-0.0013463191347937616,0.04080011128439157,-0.00827053894801309,-0.04573885043725435,0.0004196587181241605,-0.005466466161048028
308,3.08,-0.0018487303062713221,0.035479009269848615,-0.005792972327759693,-0.03144680587146105,5.285908970655012e-05,-0.01564492007258991
309,3.09,-0.002178245483886449,0.030954210137580526,-0.0036499397343697443,-0.011717075059129169,-0.0002016447587553114,-0.029468503884569768
310,3.1,-0.0013605303243787417,0.02167772684968333,-0.0005843582965269077,0.0024569322121159995,-0.00022209408911753976,-0.03381929518445323
311,3.11,-0.0004014477167363301,0.012117172927956034,0.0020399337013165667,0.01381834921048988,-0.00012405309935130515,-0.03337447635733625
312,3.12,0.00018517639579538193,0.0044375689322846135,0.003596966500252389,0.02517976620886376,-2.6012109585070464e-05,-0.032929657530219265
313,3.13,0.0006073177387726479,-0.003628601480163838,0.004786347124874036,0.037172245231244336,0.0004921498282980158,-0.03076691151182436
314,3.14,0.0009394179871203784,-0.011889410052834618,0.005650030383388663,0.04981709119851531,0.0014446161752268527,-0.026828240353452718
315,3.15,0.0013278112541527608,-0.02044950208729051,0.006104331676944108,0.06345764220605897,0.0020850770372860786,-0.021269208916682044
316,3.16,0.001650654095972268,-0.0282205133241202,0.006229587227231494,0.07767498507837209,0.002544799409373457,-0.014771535423504603
317,3.17,0.0020196396015462062,-0.035540365657417805,0.005985392318775572,0.08549076287982584,0.0049091256238140675,-0.0061895671957429964
318,3.18,0.0022575939893025873,-0.041824704063412314,0.005752506322381057,0.09028433853462184,0.008172622237552014,0.0033764041549115085
319,3.19,0.002262240039251442,-0.04671276712677042,0.005259929785402927,0.0883265070169923,0.010013290749879285,0.00838914560831905
320,3.2,0.002184831172150054,-0.051050404555518465,0.005135609521749506,0.08287670962911564,0.011118043468289244,0.011046863435612966
321,3.21,0.001754621643106811,-0.054000633592211106,0.005272696603182571,0.07997476875929581,0.010061913676633198,0.013387157649185652
322,3.22,0.0013428027035354544,-0.056746876568967014,0.005824818167553842,0.07910004143436906,0.007286467957144058,0.015474892330993438
323,3.23,0.0013439573714776679,-0.0604901815806731,0.007022643136985696,0.07822531410944232,0.004511022237654918,0.017562627012801216
324,3.24,0.001573675269706262,-0.06440405933463958,0.008522006234697217,0.07735058678451559,0.0017355765181657785,0.019650361694609
325,3.25,0.0021549952776528693,-0.070909664573118,0.009078608936329485,0.07387883595830605,-0.0007371132982914673,0.02776589816522344
326,3.26,0.0030822828745124247,-0.08060619526664574,0.0081465955629891,0.06478307823995483,-0.002554167428569167,0.04893499336873639
327,3.27,0.0030715313639199165,-0.0788076196867346,0.010353497653817528,0.05814472359769875,-0.002333468006800281,0.06520561544990996
328,3.28,0.0025380343903827,-0.07063620832846276,0.013752585756529986,0.05407022267561876,1.3257086556233996e-05,0.07636557064046952
329,3.29,0.002059950213122814,-0.06211150538358676,0.01668074567663328,0.04719949919482077,0.004979386926559663,0.08598363588805552
330,3.3,0.0016137751261565815,-0.054164744076319576,0.01806033718325973,0.039038745812243925,0.011153972237140954,0.0948903542775431
331,3.31,0.0023212174599986594,-0.04634816068038519,0.01819675341837408,0.030448163698262486,0.02462214200498308,0.10185427290017303
332,3.32,0.002696599638842131,-0.03889370676317221,0.01691880427493844,0.021635463202983398,0.041859345937224963,0.10781422992630907
333,3.33,0.0036826110393135335,-0.030753665262768275,0.01478320918991282,0.009274904020102476,0.062333975408910836,0.1153262642181454
334,3.34,0.0036168226912906476,-0.02277874702924043,0.011789046413071037,-0.004893054871556735,0.08445785940069081,0.1236289793811875
335,3.35,0.003691970373363447,-0.014025274652098935,0.008204913398104073,-0.018111223324782582,0.10736476222628684,0.12801498079657445
336,3.36,0.0023736417123479403,-0.005658792746672435,0.004391079864585087,-0.030880374501517836,0.13064184037685336,0.13054933992477832
337,3.37,0.0012899968935635663,0.003069443860931751,0.0002970294639465447,-0.04137814569943057,0.15534946411407669,0.13329019000671188
338,3.38,-0.0009687750525521829,0.011273731739216364,-0.0033642720170166947,-0.0507327148274248,0.18077709185372448,0.13613496848808726
339,3.39,-0.00250673790550929,0.019161962593664233,-0.006727426169893037,-0.05745452282467236,0.20327364506141693,0.13832139224565834
340,3.4,-0.004841155725205644,0.026595999809760403,-0.009234953450376239,-0.06266431687277575,0.2240868607545355,0.14012971807620828
341,3.41,-0.008324672005979014,0.03415274241997387,-0.011262410427248619,-0.06723577638695286,0.2405862266960399,0.14017544919834468
342,3.42,-0.012060965988416446,0.04123301260417389,-0.012274568252272853,-0.071468328343926,0.2547952633450461,0.1392853752915806
343,3.43,-0.01433022116745956,0.04846299590959533,-0.012633749872991039,-0.07497333819324692,0.262012138485639,0.1353413676797416
344,3.44,-0.015297712618543909,0.05529376100699126,-0.012380157760575468,-0.07774408161565666,0.2621722269561976,0.1283152003330038
345,3.45,-0.016236028154110387,0.060311001378655575,-0.011062472997387569,-0.0805148250380664,0.2623323154267561,0.121289032986266
346,3.46,-0.01645719109306048,0.06401369358944133,-0.009232458936495136,-0.08328556846047612,0.2624924038973147,0.1142628656395282
347,3.47,-0.015622835116215213,0.0666773394987753,-0.007279927571458969,-0.08605631188288586,0.26265249236787325,0.10723669829279042
348,3.48,-0.012989892263925683,0.06885642517305236,-0.005461753418113432,-0.08409704345843343,0.2620462547148788,0.09992498567133393
349,3.49,-0.009170362358319492,0.07022605990392985,-0.003939685085259371,-0.07735831392776281,0.2606656794871001,0.09232474258129353
350,3.5,-0.0072026586919078945,0.06960934899553314,-0.0023346932632810104,-0.0729502930009863,0.2542456047046188,0.08894858855108766
351,3.51,-0.004671361560355053,0.06779889938228581,-0.001248106444512601,-0.0698363046894356,0.2450275496094955,0.08791769081071217
352,3.52,-0.0001907328229610412,0.0653117492734187,-0.000503183475666036,-0.06671615363389988,0.2358651058666904,0.0836645051439769
353,3.53,0.0051953539841423525,0.0619441901317675,-0.0003565033011689034,-0.06359143257420392,0.22674390091492866,0.07702182069799397
354,3.54,0.00923074819646429,0.05713605208384387,-0.0008294217840651395,-0.057243344818719184,0.2189752484253857,0.07187894291542904
355,3.55,0.01322691801204987,0.05139868930404519,-0.001844184452344676,-0.04918540261456535,0.2119240656074147,0.06753164669016543
356,3.56,0.017643550224519404,0.04442127855983817,-0.0030702559100755696,-0.039616368955290346,0.2042431145887812,0.06489754174698398
357,3.57,0.02176519475612993,0.03679411696514415,-0.004397828615532522,-0.029026012715404725,0.196136513301458,0.06342135542968448
358,3.58,0.024449428153039018,0.027984448739126092,-0.005955140204397374,-0.016670263805290464,0.19132552582081472,0.06125320449802678
359,3.59,0.02620865325655366,0.019193428498005066,-0.0072592066027575165,-0.003474546481832461,0.1880825812729837,0.058755818926951926
360,3.6,0.026596564359821752,0.009968144525410418,-0.008622458337323774,0.008214893730334627,0.17948982547951928,0.05658001576005894
361,3.61,0.026120809349234234,0.0011766451388648506,-0.009284410673659559,0.019210060124222262,0.16843123265464902,0.0545524364770511
362,3.62,0.023092860276291552,-0.007912456582648792,-0.009501093568764087,0.02888641859500025,0.15647259491742724,0.055693310765336616
363,3.63,0.01977592663688103,-0.016366667070728196,-0.008850377449875053,0.03794187632127551,0.1440902119581968,0.05832590734832872
364,3.64,0.016706918859646012,-0.024657060992971127,-0.007743096846762187,0.04793767070002285,0.13020750557651625,0.05907639796182095
365,3.65,0.01349321945353932,-0.03264765950627044,-0.006229902301102321,0.058957483246586576,0.1146909604646848,0.0577772920808484
366,3.66,0.009788501152830064,-0.039635026077163835,-0.004124276454814492,0.0682326436898499,0.09882324477148263,0.058612987715097466
367,3.67,0.00467321818228145,-0.04671745765126612,-0.0016407147188994518,0.07669635660906203,0.0806966797543891,0.05909702012399884
368,3.68,-0.0002914650377589603,-0.05286392318101844,0.001269887542508554,0.08624818108232166,0.060637554605691514,0.056869068094604514
369,3.69,-0.006046542863685233,-0.05584065126109371,0.005039023861229763,0.09078695716302973,0.049034667827221386,0.059236819707864666
370,3.7,-0.010641917736033386,-0.057893597627306774,0.008224825189768255,0.09270973218787727,0.04184457078722489,0.06400278586847866
371,3.71,-0.013179285062874205,-0.06252818988974884,0.009839379740753872,0.09511016559409984,0.029158056870076512,0.07102364574756763
372,3.72,-0.014731298544654072,-0.06627473766319494,0.010551915955817538,0.09773280637920376,0.013914601768319018,0.07909348548836474
373,3.73,-0.017711848618067877,-0.07043391949110273,0.011417070452570354,0.0979614414545603,-0.0024242884669072786,0.08705000138990875
374,3.74,-0.02012837300686572,-0.07191211588321673,0.011667110154902032,0.09704997283643513,-0.019284860683321997,0.09495254877869358
375,3.75,-0.022197139551146154,-0.0678992760799054,0.011566347806809683,0.0938263095953058,-0.03310356285280859,0.10209366828322784
376,3.76,-0.023335204923817476,-0.06193142770225351,0.010809862693881256,0.08929921216873005,-0.045207496997404506,0.10880555439875143
377,3.77,-0.02407611316588714,-0.055823972634766586,0.009509853011807928,0.08109507421448266,-0.05709583179838279,0.11969766150506855
378,3.78,-0.023993171774658872,-0.0499354753525299,0.007800248159816028,0.07087243693711441,-0.0688658140476602,0.13288448719740986
379,3.79,-0.023936601412264304,-0.04408783068619405,0.00577593006310273,0.06089242685127976,-0.07972625269336035,0.1417520415487062
380,3.8,-0.02309382129228039,-0.038409762014374266,0.0037821370700702197,0.051036961473932094,-0.09011980697112254,0.14840243966682692
381,3.81,-0.021608462788769944,-0.03141790244483369,0.001727613970106119,0.037455564523068516,-0.10187106129946802,0.1562482430000657
382,3.82,-0.01943224110927568,-0.024805554864909162,0.00010641306811311462,0.02215680977608476,-0.11424810725083615,0.1646450329591186
383,3.83,-0.01814644968569236,-0.018671991206380495,-0.0010905492166401309,0.006296910294720513,-0.12618398597280575,0.17325591871637785
384,3.84,-0.017226878527918828,-0.012643777605429245,-0.0018665434402427954,-0.010233505414467998,-0.1375927105251428,0.1821226292158309
385,3.85,-0.014692233322768054,-0.005802254930890056,-0.0022591141605340826,-0.0258545374281002,-0.14784160287807088,0.18849938875901184
386,3.86,-0.01095608358357016,0.0007289646262433024,-0.0021528715428936916,-0.0409517243026846,-0.15742238070163098,0.19344182667174756
387,3.87,-0.006616576241822356,0.007583852061759572,-0.0017970226773946977,-0.055592511108146586,-0.16383011142763065,0.2030978406022249
388,3.88,-0.0020152700183276046,0.013840373951804638,-0.0011226625682484695,-0.06997956873250166,-0.16847383137417124,0.21537430063685525
389,3.89,0.0014608351864939893,0.020651418559775658,-2.5422622851025735e-05,-0.08486380618289031,-0.17650038299160034,0.22479049536923268
390,3.9,0.004918455516494858,0.026639511489288843,0.0010934654285480955,-0.10000749114864484,-0.18629222601056294,0.2327140938877271
391,3.91,0.008466016087763378,0.032982706952707594,0.001690791636973624,-0.1108017591801702,-0.19258117373862305,0.2361891327445507
392,3.92,0.012067621532298158,0.0381734496045604,0.0020955660921773687,-0.1194196873053708,-0.19711735990701926,0.23743822314350896
393,3.93,0.019266346225855848,0.040059465832763035,0.0028539380249719254,-0.12187577834259886,-0.20267447354079632,0.2332845759083726
394,3.94,0.024848451586873994,0.04165679315229247,0.0033206606134456567,-0.12139874397632705,-0.2087175637171348,0.22655914581420225
395,3.95,0.016579849872862026,0.05008241388871106,0.002882960322164881,-0.12362425364073455,-0.21640574713494826,0.21396720042974887
396,3.96,0.009299107105332743,0.057258599350030095,0.002126752246404805,-0.12710583071532885,-0.22485852420373575,0.1986486616637124
397,3.97,0.01311608057602426,0.05844637629936351,0.002175958133483408,-0.12846840491797842,-0.2280195037372589,0.1829639907202822
398,3.98,0.020106004509506677,0.0571513191863096,0.001999480842889506,-0.12857684784430032,-0.2280485343315727,0.1670626245467422
399,3.99,0.025154509497573623,0.05590585709399813,0.0013284725101198056,-0.12743183224240207,-0.2299952324003537,0.15121105968086268
400,4.0,0.028249452881707146,0.054545552940409914,8.513201320274263e-05,-0.12563734738943114,-0.2329355541355012,0.13538529895389995
401,4.01,0.03549705078817948,0.04924223099931328,-0.0019493503806399652,-0.12334038291063965,-0.2330482558743576,0.12721171123275904
402,4.02,0.039517572134586045,0.044724201225243336,-0.004059883521094765,-0.12077945567539206,-0.23167555137965296,0.12305796546281553
403,4.03,0.036865004512990095,0.04322090638211284,-0.0058207954697825845,-0.1182185284401444,-0.2303028468849483,0.11890421969287206
404,4.04,0.030258098747889255,0.043123631078392365,-0.007183898335003282,-0.11565760120489675,-0.2289301423902436,0.11475047392292853
405,4.05,0.01836821965719888,0.044923476832198606,-0.008152357100739515,-0.1086708745664124,-0.2277530472164439,0.10748544332305496
406,4.06,-0.019385820185973752,0.0588807493238417,-0.008863129664239801,-0.06455314542283876,-0.2282170499602831,0.07411775548804052
407,4.07,-0.020918419049017395,0.05159156736147963,-0.009251656914062014,-0.033972762925314814,-0.2270267883893459,0.05479672774535007
408,4.08,-0.004806089805520882,0.034071559066855536,-0.009252879116857758,-0.016962255740190682,-0.22417828749927154,0.04955611258218981
409,4.09,0.004190426734123422,0.020856932984251064,-0.00862891090586319,-0.0025465574244855397,-0.2226704822013197,0.0419437722736375
410,4.1,0.008155511090714846,0.010671053798153892,-0.0075950789828135076,0.009216611298719495,-0.22253319585547687,0.03190694852525569
411,4.11,0.010364473303065485,0.0017942484834898506,-0.006201890311871765,0.021063166093408008,-0.22240172898560245,0.027461992779321816
412,4.12,0.010279098420534849,-0.0052713390250640375,-0.004736017706637989,0.032955535423188013,-0.22227345949127564,0.02608935868456247
413,4.13,0.00873334379704439,-0.011881294563835958,-0.0034452612473096257,0.04720248046360837,-0.21614067018945848,0.025450158293341886
414,4.14,0.0054898485384060995,-0.017382683502103036,-0.0022404198796379497,0.0627150461504615,-0.2067803591707,0.025205189794429345
415,4.15,0.0011361873204511,-0.023465239343510257,-0.0006980943414925013,0.07636726237134017,-0.20031782137493132,0.02605696015378036
416,4.16,-0.004023167671082604,-0.028655735770153526,0.0006628886620445452,0.08906495520908682,-0.19534209686394985,0.02747145429409244
417,4.17,-0.009607011324712788,-0.03236620272983193,0.0015932139303585792,0.1017626480468335,-0.19036637235296835,0.028885948434404517
418,4.18,-0.013357370308436596,-0.037522306967259715,0.0028683359155322486,0.10927078253570396,-0.182495364414496,0.039454963144375584
419,4.19,-0.016993026338932966,-0.0421006710565696,0.0037347004001112506,0.11437918267254946,-0.17328553135205088,0.05425717382411288
420,4.2,-0.019835301012623208,-0.04544887892690514,0.004034113058895136,0.11544087374620846,-0.1620042025724608,0.06618809893084418
421,4.21,-0.022655272590746466,-0.048192084048145956,0.003942597278748765,0.1142518741582072,-0.14957075339245432,0.07652207809329856
422,4.22,-0.024696846624876916,-0.05097876197573247,0.0033468024439557275,0.11000487202435898,-0.13800676965755956,0.09131187622548148
423,4.23,-0.026013883539708047,-0.05371968909934885,0.002618434341572366,0.10256612270031236,-0.1273502782644153,0.11075237280001136
424,4.24,-0.027848962220064458,-0.05587494477210507,0.0022683481358950156,0.0951273733762657,-0.11669378687127105,0.13019286937454128
425,4.25,-0.02932239995775012,-0.05749923740117129,0.0022123365283898463,0.08768862405221907,-0.10603729547812682,0.14963336594907115
426,4.26,-0.02990655206654303,-0.058533818588297426,0.0023705352515240724,0.08024987472817241,-0.0953808040849826,0.16907386252360107
427,4.27,-0.02861466566395189,-0.05800129767948082,0.002210031317466641,0.06919243152425142,-0.08654177139945449,0.18399649211874552
428,4.28,-0.025894957578113283,-0.05636573112683051,0.0019899488205350983,0.0541609547980345,-0.07969866378225683,0.1939576202933899
429,4.29,-0.02172509927513016,-0.053251666058741626,0.0022313029548687554,0.043565356119205485,-0.0747571285997499,0.20334021027614288
430,4.3,-0.01686920012350018,-0.04936027343763719,0.0027601139480876074,0.03745918733541896,-0.07174012246080319,0.21213727770251484
431,4.31,-0.01493571691197879,-0.04763006028837596,0.003232444011194576,0.02272059637044458,-0.06431727937638869,0.22455714661517448
432,4.32,-0.01312818428655302,-0.045799568034252655,0.003841823421114122,0.002751536658140548,-0.05422489673917992,0.23917210626298166
433,4.33,-0.007869796594951227,-0.039584837286585677,0.0053578407852267265,-0.010495636457241176,-0.04490792733186466,0.2437307865972053
434,4.34,-0.0019411297307409623,-0.03232136181981908,0.006691858213073016,-0.019877380691639544,-0.036036860224492887,0.2425065915535909
435,4.35,0.00287830693721842,-0.026054182345095926,0.007194532000185162,-0.029259124926037917,-0.027165793117121112,0.2412823965099765
436,4.36,0.0077215051675322815,-0.018442241393557973,0.007549504015648823,-0.0387266381862878,-0.019229218042302054,0.24074418683285986
437,4.37,0.011838875774772389,-0.010512841742463766,0.007287551727566927,-0.04824317579779055,-0.011826785278090285,0.2405980766022231
438,4.38,0.015394946886251837,-0.0016459197563995706,0.006364034236401767,-0.058332895684549024,-0.001745364597137344,0.2369777253478497
439,4.39,0.018295132184798606,0.007775123139637307,0.004981084683154186,-0.06902038789310128,0.011129975044993069,0.22973408493593284
440,4.4,0.02069029628079204,0.016800555376017445,0.0029576985997846407,-0.07805421016343198,0.02164362099856336,0.2235329700817998
441,4.41,0.022373068920773377,0.025551089116025914,0.0007210966010982364,-0.08543303903020442,0.029793683152578288,0.21837521513963856
442,4.42,0.023177619715414016,0.03373534050378434,-0.0015667552660031344,-0.08868250753704346,0.040496468823000495,0.2140266136142845
443,4.43,0.022996080538655782,0.04139954172294071,-0.0035537605491894443,-0.08865308315671612,0.05322622871007476,0.2103205153222976
444,4.44,0.02180019122983165,0.04810180594418759,-0.005424069614882415,-0.08458171270281857,0.06246678369704237,0.203881877102677
445,4.45,0.019818551945386717,0.05425986732128661,-0.006654266286996989,-0.07820999101577505,0.06972156335485782,0.19588809651407352
446,4.46,0.01807963113553461,0.05994304928984291,-0.007284385526005057,-0.06966475849371076,0.07720854376524564,0.1863968095341912
447,4.47,0.01640343391879858,0.06505870700011154,-0.00740790694296987,-0.05884276892169429,0.08493875493938452,0.17533688154329674
448,4.48,0.013909618728044432,0.06858800872176793,-0.007035762033303439,-0.04755882561915147,0.09123348932735756,0.1654008834946986
449,4.49,0.011044614054233383,0.07141916998672665,-0.0062088404448941165,-0.03602405448483542,0.09674880035311527,0.15607514766905073
450,4.5,0.008427371047811154,0.07300941955161382,-0.004715499310497881,-0.025322046139388817,0.10100041700162632,0.14562803513947736
451,4.51,0.0059586663730159285,0.0739281905014158,-0.0032085983985522715,-0.015048845659321287,0.10460132963737244,0.13460350109549066
452,4.52,0.0037445028319473663,0.07338180808042699,-0.002173623183750608,-0.005289316094239267,0.10683832169128964,0.12010772945048195
453,4.53,0.0017916370679151791,0.07195966645473909,-0.0014234207379277685,0.004235420281230399,0.108451881009494,0.10402529419562244
454,4.54,0.00023291056877213293,0.0687930379842352,-0.0006460239386809168,0.012899165669430735,0.10931654297229397,0.09281122837775692
455,4.55,-0.001023013535580766,0.06455136751771857,-0.00013233189002023358,0.021159412417540543,0.10983023835246873,0.08387869683415304
456,4.56,-0.0018610060440008543,0.0585043985991227,0.00011374269097283235,0.031623864092866286,0.1097659451257324,0.0751254874992737
457,4.57,-0.002499433185400442,0.05141667141521461,8.075487800489941e-05,0.04313515055663382,0.10942714993524187,0.06645744298918682
458,4.58,-0.002638464202889443,0.04210643607594417,-0.0003939688463195628,0.05695203136349156,0.11235101503053396,0.0624193301797213
459,4.59,-0.0027764457500528395,0.032107900235976844,-0.0009339744140423915,0.07202353145154908,0.11705029934248724,0.06090065518881501
460,4.6,-0.0026481108112426173,0.020483736502392033,-0.0002641830149611949,0.08093797550013569,0.11909600760123935,0.06769117314549182
461,4.61,-0.0027965132135317236,0.009081254598248458,0.00024080092273370693,0.08669048657733971,0.11977898185840045,0.07874884588817581
462,4.62,-0.0036438820679175424,-0.0012947887178400876,0.00011645248947585933,0.08886789584380361,0.12286267233535847,0.08752311223315934
463,4.63,-0.004655099389123378,-0.011251265863885383,-0.0004650213818190674,0.08929397394910639,0.1271223990058047,0.0951788088171716
464,4.64,-0.005532148976184941,-0.021096606859208188,-0.0013123661457079105,0.08972005205440918,0.1313821256762509,0.10283450540118387
465,4.65,-0.0052948052754994285,-0.03176243107802266,-0.0026477655388964265,0.08999335481799776,0.13486647351266384,0.11642957637623895
466,4.66,-0.004619548303516598,-0.042583689962747556,-0.003933454602594976,0.09010397692141292,0.13752517017271726,0.13634910610301973
467,4.67,-0.005083262403700465,-0.052388837674158285,-0.005022016097056623,0.09152760506288601,0.13606882800792164,0.15738182254147512
468,4.68,-0.006090503565212801,-0.06112980808188868,-0.005572259554665299,0.09427425615256478,0.13046605342756354,0.17953621818207766
469,4.69,-0.008274445679027867,-0.06777178874069852,-0.004598159345568529,0.09169283291452772,0.12609937310259062,0.19507026348506454
470,4.7,-0.010076815875660504,-0.07316199762065717,-0.0028026014007912223,0.08590500646501728,0.1224765668954268,0.20662022161547072
471,4.71,-0.010382031236665496,-0.07821087835260884,-0.000548055463538033,0.07747526497507969,0.1164444229618031,0.2175105743808674
472,4.72,-0.009715268815753934,-0.0823000782481688,0.00177446309909787,0.06615347321256733,0.10777482637663363,0.22767887066584094
473,4.73,-0.009570156548472096,-0.0828432155361197,0.004139577309556454,0.05367282707129178,0.10404561043408876,0.2373005704096819
474,4.74,-0.008924836158046547,-0.08197715975030198,0.005965696230236222,0.04059466310695591,0.10286370806326388,0.24664043907851024
475,4.75,-0.007891332691645245,-0.07970194435172849,0.007623880400687535,0.03174210299286346,0.10100064814893006,0.2488485759203415
476,4.76,-0.0062370845195268455,-0.07679295531055647,0.00846746595487672,0.02496704739702911,0.0988026993229904,0.2475504197875633
477,4.77,-0.0038077721498633614,-0.07286136009553042,0.008786427444629857,0.016060718271603644,0.09592129727414092,0.2517534356220184
478,4.78,-0.0012876144613719308,-0.06803812631150874,0.008343954428027064,0.005966438988507,0.09265894536003773,0.2590227486797609
479,4.79,0.0005412553355266408,-0.06136414795169078,0.0072782321462053,-0.0025554058344018477,0.09124690116417247,0.2629451422379681
480,4.8,0.0020207265296332466,-0.053734377560979193,0.0057600096794637595,-0.010230927295336052,0.09083073863360712,0.2650661404217908
481,4.81,0.0011002932426047128,-0.045009167207332765,0.003424692778034327,-0.015483928509521516,0.09046417114135104,0.26467175357852923
482,4.82,0.00042423304058742924,-0.03559472721574741,0.001211462756341279,-0.019377216954454563,0.09012544036458624,0.26286553079891056
483,4.83,0.0014686316130355856,-0.025794471108755088,-0.00033302027585890067,-0.02327050539938761,0.08978670958782144,0.26105930801929184
484,4.84,0.003282558890440001,-0.015390349427330145,-0.0013278202927254304,-0.02716379384432066,0.08944797881105664,0.2592530852396732
485,4.85,0.006526944194417728,-0.0033675011005421633,-0.0016838373486339493,-0.03416274937600286,0.08781222168999338,0.2572970003593333
486,4.86,0.01720618739383827,0.015070782236077603,-0.0005181678924991481,-0.06198259472963505,0.07748099211277823,0.2543362159408771
487,4.87,0.015478296307394408,0.02645181475910971,-0.0017279173963533278,-0.07803039925956959,0.0695392928161905,0.2493514319152147
488,4.88,0.007773604186697862,0.034003455476247724,-0.003753680310382773,-0.08227315504040453,0.06399382386510681,0.2423369731382444
489,4.89,0.002214661368581731,0.041224634804016454,-0.004471230227903045,-0.08274578909772662,0.05773990212435156,0.23811298207420895
490,4.9,-0.0016484259907679159,0.0482579229442529,-0.004332261919213383,-0.0785030132028631,0.050599896171981455,0.2373791168442449
491,4.91,-0.003652484500870038,0.05541889699533789,-0.003356815676583824,-0.07354723450308555,0.045624396051722256,0.2345815043144193
492,4.92,-0.004387818264877295,0.062319178763114776,-0.001985378763418961,-0.0677786661731396,0.04311633067737677,0.2294313170218371
493,4.93,-0.005380944745044477,0.0680404550593556,-0.0001421570256384501,-0.06579859218198279,0.03548159725784555,0.21695675379001145
494,4.94,-0.005512104865989474,0.07264792884458775,0.0015726828897137538,-0.065922844413227,0.02499924654334492,0.2004138523284395
495,4.95,-0.005229385046384736,0.0760687831119302,0.0026812972265435673,-0.062297026061822136,0.01319491988703653,0.18172632520506535
496,4.96,-0.0040220201518612496,0.07824584862997214,0.0033092369700973056,-0.05662160216771981,0.0006680657054654454,0.16186665037231776
497,4.97,-0.0031414193490118623,0.07877939666701256,0.003745150343264107,-0.04643021867532158,-0.011682555094294595,0.14273645008213762
498,4.98,-0.0015258037799061835,0.0779836449847772,0.003745550815340587,-0.033910357681649836,-0.02394230806063221,0.12398237473797367
499,4.99,0.0008435188788659398,0.0749633624356901,0.0034528531540759908,-0.02243306178289261,-0.033623537091090436,0.10665132023190264
500,5.0,0.0035402946975009175,0.07091762828226197,0.0027131932136346426,-0.011477439491268157,-0.042014536965335934,0.09003230991113391
501,5.01,0.005363169144778452,0.0649871881517391,0.0019086113717758303,0.001193525584826988,-0.05098168186993906,0.08058563739956846
502,5.02,0.006851177957979806,0.05845131790169176,0.0007823696245423972,0.01490074040848656,-0.06029687973962509,0.07547182086962953
503,5.03,0.0078036103614130626,0.05040398605969637,-0.0008263982579450931,0.026558208322160836,-0.0671209566541314,0.07184244343866876
504,5.04,0.00851523761432132,0.04241676459129284,-0.0025817030037554515,0.037127415016632866,-0.07262243597638983,0.06900119135909444
505,5.05,0.009116944105099365,0.03522243634981552,-0.004246248318382386,0.047696621711104906,-0.07812391529864822,0.06615993927952013
506,5.06,0.009280644670487361,0.0279422801247386,-0.005681077533142615,0.05826582840557694,-0.08362539462090664,0.0633186871999458
507,5.07,0.008856203193208893,0.020073903783662875,-0.006797142033052976,0.06883503510004899,-0.08912687394316507,0.06047743512037147
508,5.08,0.008027655898153671,0.01031074745696416,-0.007667104955807576,0.08000984462539895,-0.09242311539947064,0.05810217887692226
509,5.09,0.006716274891675444,-0.0005988744889163684,-0.008191707527572697,0.0918631964235138,-0.09324851782191396,0.05624904349820695
510,5.1,0.004686929815422694,-0.010646469001008761,-0.008173815765696394,0.1037165482216286,-0.09407392024435723,0.05439590811949165
511,5.11,-0.0029017037755261184,-0.025332677461621697,-0.007742738266158838,0.11790437953912827,-0.10435453091006096,0.04681647850883083
512,5.12,-0.005697288081462015,-0.03612625034931476,-0.006810721876924443,0.12802038858196182,-0.1102430414349964,0.04509380812775287
513,5.13,-0.005035114183330219,-0.04344430903302945,-0.0055717533327737075,0.1336778432887883,-0.1101973169342184,0.050168249766173637
514,5.14,-0.004848835502260805,-0.04915214418134859,-0.004058624603770089,0.1367150406591674,-0.11248163171511562,0.05342342174886761
515,5.15,-0.0050025400699295645,-0.05389968921296266,-0.002568516767400451,0.13810428012499795,-0.11623137761941213,0.05553440084334507
516,5.16,-0.004889524471950906,-0.058430414869923314,-0.0011656981825363395,0.13655399585306566,-0.11455618900519535,0.05919451427631039
517,5.17,-0.004914252849847341,-0.062481148216753754,8.709232858221589e-05,0.13269314827163256,-0.10861682164192044,0.06407229876190743
518,5.18,-0.005442942466867714,-0.06599184828774271,0.0012570814195347485,0.12920060008189224,-0.1049521406255196,0.07234482273539936
519,5.19,-0.006235827344910478,-0.06862330083621941,0.0022525470236406126,0.125963249015937,-0.1028636050666701,0.0829695845155535
520,5.2,-0.006878246751876106,-0.0694988288812208,0.002970403252187688,0.1203501924426374,-0.1022395883178178,0.09524031030291956
521,5.21,-0.007464440609725304,-0.06936528328357623,0.0035317399452858516,0.11344209739129225,-0.1024139062972829,0.10840827975799942
522,5.22,-0.007364749972595357,-0.06771869535291823,0.0040328752447232495,0.1078072345581807,-0.10084048039976157,0.12137046421179212
523,5.23,-0.00726814453578018,-0.06552876683389139,0.0044807527378106695,0.10275489263062744,-0.09846743811543646,0.13423849925310258
524,5.24,-0.007574224493324501,-0.06331191951662923,0.005029763792993468,0.09614228248940243,-0.09663800559029342,0.14975973087378214
525,5.25,-0.00783412170734412,-0.060438524887285204,0.005564904034666077,0.08796377704016667,-0.09535414334840887,0.16794372780523306
526,5.26,-0.00747176743336727,-0.055890957012971906,0.006026317684602547,0.07740365321246477,-0.09240686918123506,0.1846048029537187
527,5.27,-0.006590550442187488,-0.04995439854049886,0.006350742929349496,0.0644456607504533,-0.08778483329839269,0.19973256512104104
528,5.28,-0.005269517665115367,-0.041487702272893556,0.0062349928045491165,0.05021802495363911,-0.08364669002691727,0.21140347983112892
529,5.29,-0.003704745052274352,-0.03264259591283919,0.005923077934329444,0.03531362235089068,-0.07976647939528897,0.22123176712916656
530,5.3,-0.0012189634448468564,-0.023215571118811083,0.005471871827094219,0.020328147253498668,-0.07155903138586148,0.23044572701903554
531,5.31,0.0011393827305651643,-0.014299349013563764,0.005009212828420975,0.005299723701318426,-0.061059213322996825,0.2393342446854858
532,5.32,0.0028808585418423037,-0.0047100985822476835,0.0043768011106741795,-0.00846170256331206,-0.057216280413550716,0.24526407779651765
533,5.33,0.004203386033732482,0.004101359398686548,0.003818864509569522,-0.021558138790774773,-0.05686724788502358,0.2496410301146629
534,5.34,0.005757613469877268,0.012340710543972858,0.003049782101136757,-0.029389897837625814,-0.051421368667672315,0.2499508503390961
535,5.35,0.006977423509154661,0.01968192181637872,0.002487444146353321,-0.03480851988890117,-0.043639279862604234,0.2483964447839555
536,5.36,0.0079024751826879,0.027187404215177166,0.002078224170910333,-0.04181911083138835,-0.03758041618690586,0.2469225659803943
537,5.37,0.008469371825638311,0.03416268493695951,0.0018265321072961813,-0.04979183025345117,-0.03256300751880185,0.24549735463603406
538,5.38,0.009107997086590049,0.041105075291854455,0.0015409160997135907,-0.055296420077906035,-0.027829447920439742,0.2408614069587217
539,5.39,0.009398647858983348,0.04720129138884598,0.0012931886016468175,-0.059430082729696736,-0.023253552815474487,0.23444204981726696
540,5.4,0.009101604884424146,0.052738101605783676,0.0012784424848296546,-0.06383213046173483,-0.016642691797723402,0.2163855666585208
541,5.41,0.008495675001797424,0.05716965406198733,0.0011487531635831544,-0.06836714660574535,-0.00902362948356743,0.19256359845486867
542,5.42,0.008720469071945026,0.06092450855721117,0.0008137158015934435,-0.07193586504437183,-0.003441350236618897,0.17527862049495896
543,5.43,0.008573630997642436,0.0635026938248904,0.0002125713348335302,-0.07505215015713285,0.0011872803241859652,0.16105434755447293
544,5.44,0.007596629968430095,0.06473781220908198,-0.0006410744371596212,-0.07816843526989388,0.0058159108849908285,0.1468300746139869
545,5.45,0.006560089356276368,0.06511118159831256,-0.0016606224116197097,-0.07595051451738437,0.011115443843609985,0.12758885729992406
546,5.46,0.005493610681609536,0.06465061091387286,-0.0027620802601787875,-0.06744796742524338,0.017205417026532666,0.1024368031057312
547,5.47,0.0045352814638127134,0.06286187369699797,-0.003956697651741177,-0.059101479862348864,0.02464566647954381,0.0802628628943627
548,5.48,0.003506433900164644,0.06002581153048878,-0.00511052829426934,-0.050911928215948865,0.033443774981536833,0.06108376093206789
549,5.49,0.001747312498843398,0.05520171594515,-0.006194952016713454,-0.04103634022693667,0.03938556890558412,0.03967738826327994
550,5.5,-0.0003405450937916496,0.04993175289657102,-0.007025016339783812,-0.03020451253820444,0.043707396921844915,0.017007813480904962
551,5.51,-0.0019366503525816104,0.04433676745487912,-0.0075105774952982365,-0.019710159814711557,0.047775370487931824,-0.007304675574315246
552,5.52,-0.0032279222245890655,0.03844749812979134,-0.0077114117126491225,-0.009553687269544165,0.05158918479561967,-0.03326205158311656
553,5.53,-0.004871908018477337,0.032996115546518226,-0.00766006427121942,0.0006027852756232237,0.05540299910330752,-0.059219427591917874
554,5.54,-0.0059885084418473886,0.02586969924041264,-0.007535645297853737,0.010716795213854371,0.05871794691496705,-0.07622390993066262
555,5.55,-0.0070035514896023415,0.018607200975275757,-0.007205780127633675,0.020808871934126026,0.061775215126160625,-0.08860395249988773
556,5.56,-0.009137320398884376,0.011389363468912627,-0.00640780509356125,0.02625405585694224,0.06635145854478212,-0.10018625062495752
557,5.57,-0.010764252659231251,0.004315879690422221,-0.005497893373182144,0.029443439770536168,0.07166507733147763,-0.11138128956353008
558,5.58,-0.00802326929900868,-0.004764925625125618,-0.005356943215398334,0.03923617913546132,0.07508443315036763,-0.12115932475935128
559,5.59,-0.005462580746600269,-0.013353225244531908,-0.005003007980557566,0.05210932232656107,0.07762013293456199,-0.1302763409046237
560,5.6,-0.006185135850504828,-0.021023371713202493,-0.00367702713251574,0.059536783804267274,0.07863121405545886,-0.13377220352471356
561,5.61,-0.007844355706379879,-0.027914140546373204,-0.0020601554696082014,0.06334436729269757,0.07862884381585186,-0.13353154774526055
562,5.62,-0.00816431868863891,-0.03479152868558873,-0.0003691074780181546,0.06559411989687977,0.08088266480569685,-0.13022389040970694
563,5.63,-0.007915633701682473,-0.04104187551567048,0.001047522364519465,0.06701165907072261,0.08434177236518774,-0.1252778011290257
564,5.64,-0.0075543355957722255,-0.0463190868313367,0.0020251775817272818,0.06842919824456545,0.08780087992467861,-0.12033171184834444
565,5.65,-0.006980152457908074,-0.05096484176610694,0.0027083422961350196,0.0698467374184083,0.0912599874841695,-0.1153856225676632
566,5.66,-0.005574305824670592,-0.055539983260659086,0.00340746215784391,0.06864452332447865,0.09480518844430368,-0.10771068573053733
567,5.67,-0.0037689684277852947,-0.05972280604463997,0.004049353803810873,0.06460537999931608,0.09844361989599056,-0.0970806815228729
568,5.68,-0.0018279099068883495,-0.06275902580324141,0.004535452714307967,0.06099405260244905,0.10271528586091022,-0.08461772710010439
569,5.69,-4.8851734091842364e-05,-0.06471992656693926,0.0048669918871988415,0.057810541133877576,0.10762018633906266,-0.07032182246223177
570,5.7,0.0006756986930277572,-0.06556289981378347,0.004871507990886626,0.05462702966530609,0.11252508681721513,-0.056025917824359166
571,5.71,0.0010078727083478716,-0.06477914566328195,0.004802416358879608,0.04799781172995075,0.114291852043809,-0.04139813282229556
572,5.72,0.0011225821368219717,-0.06296417539107536,0.004669672350587087,0.03924683141861976,0.11412624799528745,-0.026565985876794925
573,5.73,0.000879018201305815,-0.05962698184389278,0.004551203461220819,0.0289036247091671,0.11113528696134248,-0.007458619311139812
574,5.74,0.0007638991432747074,-0.05563491313073829,0.004419912947943446,0.01767176811531559,0.10656744392026343,0.014034823396521116
575,5.75,0.0009409455872816277,-0.05066574076575825,0.0041893178352885065,0.0071964500738780565,0.10631435903715074,0.02843639050312967
576,5.76,0.001457970742182514,-0.04525832065375665,0.003988409013047173,-0.00284644132680361,0.10852752834553944,0.038784342717230365
577,5.77,0.0018859714922293217,-0.03844105697575034,0.003578866319404892,-0.015137027727182444,0.10521222978218146,0.05143898853263211
578,5.78,0.00261883069768459,-0.031408688372000476,0.0033210343862980526,-0.028606805847939076,0.09899657172093046,0.06530377807147905
579,5.79,0.0034265810828294583,-0.023513419520099138,0.0029928752014152394,-0.03930047236843833,0.0947257095438392,0.07616166292222969
580,5.8,0.004514749746007331,-0.015738526736142268,0.0029252617352611516,-0.048563383387729024,0.09145715844449112,0.0854698458720536
581,5.81,0.005352509436406657,-0.007844888321870417,0.0030836514600580244,-0.05337968806120788,0.08861169665401003,0.0928736011384904
582,5.82,0.006386590093336888,-0.00013789399548736966,0.003422525302424534,-0.05616066563179327,0.08595989381831644,0.09940565043906194
583,5.83,0.007324806220197171,0.007979541395168911,0.00400671076764305,-0.060198232066940936,0.08337714900162113,0.10649420861303828
584,5.84,0.00826112844168936,0.01607756085251237,0.004474551502983202,-0.06498814467279775,0.08083575067271932,0.11391596034910904
585,5.85,0.008954725810358981,0.024645209413379127,0.004826045691453479,-0.0709747859116985,0.0784479488639088,0.11615817884969415
586,5.86,0.009478123506132849,0.03282618634818367,0.004793875778993106,-0.07763868635508107,0.07614707123668453,0.11546916761131198
587,5.87,0.009792095289500402,0.040812549043614456,0.0044301392282334335,-0.08447439546774899,0.07539525643654618,0.11360781717600685
588,5.88,0.009786777602122012,0.04788389707606037,0.003645069228938912,-0.09139908624095144,0.0754457188625792,0.11113929895990307
589,5.89,0.009236316640356065,0.054644946470471495,0.0024530091292116188,-0.09761862417151483,0.07353649179171176,0.1095531519112485
590,5.9,0.008305612832434419,0.06010429395414361,0.0010256314201038128,-0.10347149119849587,0.07060825001208973,0.10842582714011992
591,5.91,0.006494235910814269,0.064024141615313,-0.000694840516020835,-0.10388389813908157,0.06690992848100058,0.10214081590090844
592,5.92,0.004588753200700681,0.06648426369512062,-0.0023460340808152957,-0.10158992466532082,0.06282852744491384,0.0932900912075234
593,5.93,0.002243505074698983,0.06795073061982049,-0.004425388954709486,-0.09509492606235648,0.05633374811219996,0.08067332026387691
594,5.94,0.0001449554101392997,0.0681913749888027,-0.006127037156715914,-0.08604037143442197,0.048368571252767334,0.06576201261223404
595,5.95,-0.0022124299578874804,0.06630679643500574,-0.007638362306859011,-0.07242933792032147,0.03824145209295038,0.04865872482974935
596,5.96,-0.004001566912574589,0.06338960984754806,-0.008417122978153696,-0.05612501577263202,0.02683643068238916,0.030259779738421824
597,5.97,-0.005416541242934095,0.05901566691105435,-0.008224950973532038,-0.04018236405058112,0.017063378725997197,0.010680802290944943
598,5.98,-0.00614781588151798,0.05431027899222655,-0.007456509438597537,-0.024450033719495445,0.008239362303842198,-0.009584396724389162
599,5.99,-0.006801305319334469,0.04887396304983632,-0.005708867709166947,-0.013681549323796435,-7.381066839265513e-05,-0.03089434321890928
600,6.0,-0.0069267245232487815,0.04346753615887153,-0.004089459394000988,-0.0056071115187623895,-0.00810973167259001,-0.05277130940361398
601,6.01,-0.006755004896272525,0.03776223815202208,-0.002528578090348866,-0.0008978182194431119,-0.015873726448813148,-0.06390715514269607
602,6.02,-0.006258627475384164,0.03194816160114776,-0.0016683277253391532,0.0019906980172217483,-0.02349059023622176,-0.06923130818882382
603,6.03,-0.0055133802422036695,0.02535059106140161,-0.0011424644684085773,0.006776614622507342,-0.02885509051458185,-0.0719856674852985
604,6.04,-0.004790038998462154,0.018463438111817065,-0.0013478727532861778,0.012517935503016336,-0.03308545075508245,-0.07344605004630662
605,6.05,-0.004145251722320442,0.01040244043810597,-0.002236068605121064,0.0247498406987463,-0.034860328470330736,-0.07125652877176826
606,6.06,-0.0037434890958825484,0.0017163258501574838,-0.0034057760312797723,0.043521846813587686,-0.034160990808297084,-0.06538925858122753
607,6.07,-0.003957489896202064,-0.007670834716496804,-0.004362367701393444,0.061307498375240486,-0.03395192328117685,-0.05581892282435688
608,6.08,-0.004527065828184931,-0.017135493092343218,-0.005055866738319147,0.07805080322889599,-0.034260956937352594,-0.04233531045707836
609,6.09,-0.004834908773786412,-0.025698937772264594,-0.005654650733119381,0.09028986312701397,-0.034576074188125534,-0.03127831884003398
610,6.1,-0.005093915416047277,-0.03281654134008542,-0.0060699588907876505,0.09996768569747334,-0.0348946507377871,-0.02160117039469137
611,6.11,-0.005606087872578281,-0.03897685867166739,-0.006584510923659855,0.10425092876279507,-0.03627099558720039,-0.012198980965308259
612,6.12,-0.0060262144233775156,-0.04405586827422729,-0.006646078288057389,0.10560506748024154,-0.038221678755827736,-0.002946086517743002
613,6.13,-0.00560837486385934,-0.048183899247942724,-0.006719612156601758,0.10163977498893367,-0.037551126053535104,0.006803557196256136
614,6.14,-0.005067777493530247,-0.05167561320157628,-0.006013508085996151,0.09491335589268683,-0.03551998350300707,0.016811045698862985
615,6.15,-0.005465181305503041,-0.0539917968883203,-0.004780298746551484,0.08572904227934412,-0.03931121424564917,0.025716925570220074
616,6.16,-0.0056825133223225525,-0.05613335571147837,-0.0027534993634379615,0.0752897915862757,-0.046075197515619816,0.03406035269631672
617,6.17,-0.005228668545976583,-0.05805952371296563,-0.0003713775898811951,0.06803119012000867,-0.05127512882982395,0.042674951528496666
618,6.18,-0.004232090139382388,-0.059882942369778466,0.0023734380469947487,0.06271046087335383,-0.05552213116035702,0.0514547669810872
619,6.19,-0.0037158689183829753,-0.061327572144875026,0.0055811706704031565,0.05497771175701468,-0.0630397097023313,0.06030550354081361
620,6.2,-0.0031536780504715766,-0.06210026651900838,0.008716094842596566,0.04474751809007834,-0.07394369597636365,0.0692296729668132
621,6.21,-0.001367822603257728,-0.06216263112880281,0.011649146044452113,0.03760440946108407,-0.07797344605919566,0.07988091327366191
622,6.22,0.0010768672089165356,-0.06115802963291962,0.01399525632777178,0.0336924414141683,-0.0748081810209064,0.09233981638948777
623,6.23,0.0034841744263309484,-0.05801455546246301,0.01579572874141114,0.02445459351960761,-0.07764344228994159,0.10502886761879884
624,6.24,0.005917092515482013,-0.05365258843741326,0.0164870563964673,0.011986995195350595,-0.08411757694213337,0.1178574865795809
625,6.25,0.008813244433483854,-0.04708415474488544,0.016281946862206947,-0.0010292955639596684,-0.0869713091924079,0.126697037106156
626,6.26,0.01130209494803634,-0.040176346430877016,0.014953914471688978,-0.014296038128026257,-0.08817250122601934,0.13371576903779886
627,6.27,0.01277521105912651,-0.03284924817820845,0.012848782437312752,-0.027336072901751343,-0.08600454920217568,0.13933345443632214
628,6.28,0.013383666058219355,-0.024835692113633703,0.010330354842177246,-0.04007948261646082,-0.07942840038293598,0.14311800692863097
629,6.29,0.01328038948414123,-0.016135902091235547,0.007121376369163047,-0.05360474762226969,-0.07645162309231783,0.14691597615523194
630,6.3,0.012640787244634662,-0.006909711707432622,0.0037290191520922564,-0.06802451945340153,-0.0775928231766406,0.15072929523049988
631,6.31,0.013000644343255858,0.0019965653079170136,-5.009297502740848e-05,-0.07871886529828458,-0.07658881449992655,0.15429111878209073
632,6.32,0.012911480948825925,0.010197176702661903,-0.003123771744381238,-0.08767933761850086,-0.07458639096022115,0.1577358922482187
633,6.33,0.011200501457845475,0.018767589846341644,-0.0055335782449413475,-0.09502604284941334,-0.0735157528352303,0.15652919718727154
634,6.34,0.008919737159513979,0.026869604014619,-0.006995492383508446,-0.10143953428373348,-0.07298395021521326,0.15263263775081884
635,6.35,0.0072468964658484744,0.0345944602034242,-0.007915895120579372,-0.10551234901307836,-0.07137253089601138,0.14903075764155155
636,6.36,0.005526718740322539,0.04156943053207763,-0.008028209184256545,-0.1083609962424408,-0.06919647500279172,0.14558299401256974
637,6.37,0.0032356235400343393,0.04819995119855815,-0.007361891687287574,-0.10984071295018208,-0.06709982189169078,0.1382498970041335
638,6.38,0.000862919216319809,0.05395654658146804,-0.0062592471197249686,-0.11068653571484646,-0.06503993685745972,0.12911766610455264
639,6.39,-0.0007581919101956464,0.05899177080074404,-0.004840661439449466,-0.11058540389735473,-0.06154481557107739,0.11900860849999885
640,6.4,-0.002352373752733999,0.06299515865810834,-0.0035208059901169304,-0.1100473970811977,-0.0573875518255336,0.10844889447171276
641,6.41,-0.004030227679867196,0.06543150313331006,-0.0019781660849666734,-0.10788942276252386,-0.05519028597473905,0.09800122066468732
642,6.42,-0.005757592807191645,0.06693473504917893,-0.0009436845041623423,-0.10498580919619628,-0.05389516868764917,0.08760511677258795
643,6.43,-0.007141409237515914,0.06859820056418361,-0.00032802418051741406,-0.10359290422577576,-0.048702456339610574,0.07824143248732114
644,6.44,-0.00825564366055058,0.06954238304409319,-0.00016241369025422805,-0.10371979937741628,-0.03958869299244301,0.06991638096599925
645,6.45,-0.009131121248005079,0.06735659211091884,-0.0008715148333663424,-0.09704130906562597,-0.03531319788515596,0.0605967040968848
646,6.46,-0.009934898012821875,0.06361933234926545,-0.0019648628689510833,-0.08663355179709499,-0.03368901385668886,0.050731984854521815
647,6.47,-0.010732713533786228,0.05925677451542642,-0.003106282918355265,-0.07622579452856403,-0.03206482982822177,0.04086726561215881
648,6.48,-0.010504628608352481,0.052765058867110026,-0.00462471359379543,-0.06196198922870892,-0.027433001353329545,0.031787069331864704
649,6.49,-0.010222455581019441,0.045869707032031214,-0.005788348086798992,-0.04593480900575631,-0.02142577382963492,0.023065636248156454
650,6.5,-0.010515945564916696,0.03794609636070241,-0.006535353853368754,-0.030660242770371125,-0.019949539093161824,0.009129818499898638
651,6.51,-0.010702547726004902,0.030195934160194924,-0.006717193183742342,-0.015761927085542776,-0.02073846094283083,-0.007412800521337092
652,6.52,-0.009800669487980966,0.021957452518834228,-0.0064621689590771214,-0.0012979365126100598,-0.017592864784851094,-0.022792015640090244
653,6.53,-0.00850433974777901,0.013843815943800433,-0.005817206392711199,0.01285806997396904,-0.01165726431756788,-0.03734624993652239
654,6.54,-0.0075298426742016165,0.005587553491528098,-0.004715093124593935,0.02344815960759113,-0.007302053348889434,-0.049926607739427184
655,6.55,-0.006571547367706317,-0.002306757019090361,-0.0034363518956253727,0.03184618635421057,-0.003918349375397226,-0.06129357174112762
656,6.56,-0.004591934666901562,-0.010419720599504571,-0.00227866605625693,0.0399194657340545,-0.0004880171663406325,-0.06804177826324237
657,6.57,-0.0026364959256509135,-0.018088612201820575,-0.0011696610513918855,0.047812206395757936,0.0029682373526072857,-0.07222225171011835
658,6.58,-0.001449139006805628,-0.026156440583294655,9.798440651235911e-05,0.05941257613675455,0.004961625380175454,-0.07805997205212327
659,6.59,-0.0005326129015346126,-0.03354088170488606,0.001243871316026984,0.07299885039688116,0.006171463296881743,-0.08478535780724387
660,6.6,0.0013073751200837927,-0.04108808125261813,0.002161928561704603,0.08636741302861699,0.010730872517307515,-0.08531406954007724
661,6.61,0.0029505032767099012,-0.047487153904770416,0.0028457320281924793,0.0996254128189143,0.016991330614531727,-0.08269585755351021
662,6.62,0.00363132718476007,-0.05319428779107223,0.0036390747276895032,0.10780541353866624,0.02005635467081208,-0.07948480596399456
663,6.63,0.003974191548532445,-0.05759713406594219,0.0041992186200055515,0.11297356296964314,0.02122611013788836,-0.07592213069409373
664,6.64,0.005125239383641185,-0.06105589666734002,0.004350224207780104,0.11618128384517876,0.023755116981141217,-0.0697233682734566
665,6.65,0.006115706063571099,-0.06313220293182087,0.004230891525882742,0.11844810346197583,0.026936492066652558,-0.06225942446613339
666,6.66,0.006528596281756699,-0.06373497460237441,0.003952550263061339,0.12071492307877288,0.030117867152163906,-0.05479548065881017
667,6.67,0.006627188547662195,-0.0633182284192545,0.003612379638028674,0.12298174269556993,0.03329924223767525,-0.047331536851486965
668,6.68,0.0072552633738666664,-0.06285079495634807,0.00319197040445066,0.12361138304669615,0.038289100632541165,-0.038850412099401564
669,6.69,0.007971528503143656,-0.06186461203398695,0.00279527383101031,0.12259267333242595,0.0450997819780456,-0.029345165974674806
670,6.7,0.007404820006559902,-0.05932468245468308,0.0027554378594820596,0.12148671045279825,0.04693932119200945,-0.02275337514881732
671,6.71,0.006406518349271363,-0.05558890810987545,0.002817426236377272,0.1203205139816695,0.045347125371285726,-0.018172833721300286
672,6.72,0.006517050521071155,-0.05089459867560052,0.0028797115708820414,0.11557669207956348,0.04924627714802225,-0.009152151144619435
673,6.73,0.00671657936231222,-0.045413703321733785,0.00286897731568352,0.10837638288963343,0.056915925816184064,0.002917243629438019
674,6.74,0.005889404375457366,-0.038560535909941365,0.002981460209687369,0.10051152124778888,0.060302164549552374,0.013562618836668313
675,6.75,0.004737795816636993,-0.03134439479700016,0.0029424131681510548,0.09230887050142672,0.06151116474894571,0.023484171126823564
676,6.76,0.004161451734456628,-0.023675470205031735,0.0027236049086101543,0.08559213428157471,0.06338882995063314,0.03214613427918988
677,6.77,0.0035482228142948028,-0.016151217004249745,0.002346260995587543,0.07956346235966047,0.06557612569105659,0.04022483486811772
678,6.78,0.002799856884117861,-0.008310551485562596,0.0020182533734957853,0.07024558052191149,0.068525025644772,0.05024435468234399
679,6.79,0.0019355033863275393,-0.000690247680225374,0.0016331067694821553,0.059005040566666965,0.07191910987084266,0.061398351144031166
680,6.8,0.0009002382618332141,0.007602841612877137,0.0010604265144083759,0.04625955444101077,0.0740605759524507,0.06844539179733525
681,6.81,-8.943385145511045e-05,0.01533361725639817,0.00048400101696546784,0.03268214155034442,0.07550960094798936,0.07322212768699897
682,6.82,-0.0006033734883852011,0.022325477797370027,-6.040702285295798e-06,0.0195098063651746,0.0766714432067895,0.07778408529001726
683,6.83,-0.0009323657663398096,0.02865004665883465,-0.00038938531251847726,0.006678805314376549,0.07759129418954293,0.08216506240568902
684,6.84,-0.0017122479393880787,0.03543878875394165,-0.0010424011597097314,-0.007351652778465246,0.07730608838735446,0.08098261982287991
685,6.85,-0.0024752846411414085,0.041255081441588924,-0.0014829281018486377,-0.02198445199967601,0.07641572938822129,0.07700634938187317
686,6.86,-0.002942886809721592,0.046779378169896746,-0.0017423946496036018,-0.034975926512844355,0.07583573174791489,0.07922492667774231
687,6.87,-0.0032241056212628273,0.050903988035741345,-0.0016919181429561623,-0.04718753572366654,0.07540320039124633,0.08438694763203852
688,6.88,-0.0040581891451753616,0.05433519618307631,-0.0015740722814282424,-0.060131492783487686,0.07241900818336203,0.08228511347362368
689,6.89,-0.004584848969620194,0.056378187627837355,-0.0012658333416423815,-0.07342485657185636,0.06821740614542943,0.07671765863366425
690,6.9,-0.004300507535425367,0.057900870456784145,-0.0006720999698732754,-0.0840992968305601,0.06690717405296619,0.07326071215176437
691,6.91,-0.00367752494733252,0.058376880651167695,-7.731555526235335e-05,-0.09297253651822844,0.06758552129008735,0.07125529673469028
692,6.92,-0.003595577019324939,0.05863631116275533,0.0005596697223510584,-0.10669181967429893,0.06494952504634438,0.06334656724398954
693,6.93,-0.003466050292526459,0.05755786316176709,0.0009151997621222084,-0.1230724853393524,0.06049333551992697,0.05219581631393848
694,6.94,-0.003216512688784677,0.0559396753501194,0.0004762348603286619,-0.13142543211534286,0.060566145205206125,0.035613443853023466
695,6.95,-0.0027717222725380823,0.052865044719151835,-0.00017930441213987857,-0.13549742116423102,0.06305414336921585,0.016134539701776567
696,6.96,-0.002377838202503878,0.04860460436199772,-0.001180092295115377,-0.13567533570901733,0.06071985964117274,-0.0046311057323897365
697,6.97,-0.001902586406940978,0.04319690932933648,-0.0019802555217306944,-0.13389509376286213,0.055960665301345934,-0.02604379600163996
698,6.98,-0.001432522052694008,0.0368460207272181,-0.0024643874300860538,-0.130617115624697,0.05456337634702462,-0.04489204279466948
699,6.99,-0.000972943002033988,0.03010560210234405,-0.002663455616175027,-0.12665390298620846,0.0547042044317795,-0.06256702212350182
700,7.0,-0.0009279362605883305,0.02330904377204161,-0.0026630058866952354,-0.1214051196673934,0.05107912085871997,-0.08372927092365846
701,7.01,-0.0009014832702075553,0.016674947183572375,-0.002573101800073471,-0.11550054387528592,0.0455329787565005,-0.10667043791682827
702,7.02,-0.0011127889498991476,0.00897942295599763,-0.0022551292889969182,-0.11428776617435453,0.040671407958791504,-0.11948924588552873
703,7.03,-0.0011838365361720672,0.0019704218491548298,-0.0020279631438897294,-0.11542793226088982,0.03615315069817935,-0.12723167560472048
704,7.04,-0.0009994859988037683,-0.0034106418436448856,-0.002045748145884019,-0.1155911481841375,0.031406285311327116,-0.13550413652747176
705,7.05,-0.001146604248002246,-0.005675265763168168,-0.0023832765634480006,-0.10329321023645527,0.02374348711206196,-0.15053722929424956
706,7.06,-0.0009436369485871776,-0.009472450590816334,-0.002637458979587459,-0.09099527228877308,0.016080688912796806,-0.1655703220610274
707,7.07,-0.0013421766113727073,-0.01550662108746452,-0.0024432414445048362,-0.07628675935216897,0.008825728977298983,-0.18011386849490546
708,7.08,-0.0018870279776120554,-0.022344978965309237,-0.0020932353294589585,-0.05916670700376288,0.0019787704735075885,-0.19416767273817895
709,7.09,-0.0014588369990068835,-0.029880496334671297,-0.0017834151798012715,-0.04476454536314271,-0.0013032315512478533,-0.2035000170173184
710,7.1,-0.0006427598360681302,-0.03574831376345011,-0.0017629152095528997,-0.03162441790532957,-0.0029298701267394213,-0.2106399832694745
711,7.11,2.3934081748270023e-05,-0.040028248824143756,-0.0018127002570421287,-0.015091114135424912,-0.00488377889706258,-0.21709506088079028
712,7.12,0.0005018625279660364,-0.04319990039259957,-0.0018381543812305847,0.0055944354084267464,-0.007238169740358444,-0.2227120370488007
713,7.13,0.0011681863839454081,-0.045885481107329124,-0.0023050719981916054,0.02267894223600651,-0.009381023591885576,-0.22495993943211526
714,7.14,0.0017490987178824878,-0.04707212184966761,-0.0027544624343891133,0.03777107345697546,-0.011406838803356759,-0.225343809379722
715,7.15,0.0016541877537921321,-0.04754847186727934,-0.003142382830065595,0.04894154869543341,-0.015227953375090659,-0.22484691262750114
716,7.16,0.001454512467365837,-0.04680724353963807,-0.0031617168988413353,0.05794415199324865,-0.020041500512435625,-0.22386313242009606
717,7.17,0.0014512444384263666,-0.04569939002432382,-0.003199010333669298,0.06574687180745595,-0.024189264096033652,-0.22157924807886092
718,7.18,0.0015467141860122666,-0.043772226920514995,-0.002706727649656062,0.07293394554919924,-0.02799542198576637,-0.21862829563082944
719,7.19,0.0011687489440872331,-0.0414820189680421,-0.0019245037607531182,0.07876101335139273,-0.032939392292191914,-0.21550244451399486
720,7.2,0.000931178072251159,-0.03877042065195759,-0.0005977878005697075,0.08393654155320135,-0.03842845569396843,-0.2122928044919314
721,7.21,0.0015773441010416055,-0.034824808178357425,0.0014338698555643901,0.08751557996156968,-0.04260582998086453,-0.2092301454747713
722,7.22,0.0025300043380235082,-0.03068112482800111,0.003684234765463228,0.08941020024426549,-0.045399272513589634,-0.20632256259389867
723,7.23,0.0028692771923457343,-0.027900608933138556,0.005623600911936271,0.09130482052696128,-0.04819271504631474,-0.203414979713026
724,7.24,0.0027992772745041986,-0.025988724598651654,0.007178153551793611,0.0931994408096571,-0.050986157579039834,-0.2005073968321533
725,7.25,0.00013935857906706341,-0.029671119537763403,0.007741525859734799,0.0961855530804099,-0.0563255409233663,-0.1887242282161504
726,7.26,-0.006007405826055596,-0.04082711289902238,0.0070579207443526425,0.10161594267977883,-0.06736628119370514,-0.15706515283404612
727,7.27,-0.0036807683265554407,-0.03256353018563435,0.009058079742567757,0.1007348402291792,-0.07425255788780401,-0.13929266371143426
728,7.28,0.0009745471804153884,-0.018874550861709555,0.010981324526873972,0.09633577639455253,-0.07882317889908669,-0.12926041633040833
729,7.29,0.0038531333917833158,-0.008353737342788218,0.011694790596088694,0.08904116067790634,-0.08098076475111701,-0.1154613384641267
730,7.3,0.005375254404480858,-0.0002981909372505656,0.011443817861474487,0.07832957911487437,-0.08029079025498231,-0.09721712141827472
731,7.31,0.005973382221511841,0.006380334985000825,0.010156985495487499,0.06637291036318947,-0.08219454109177436,-0.07953480727249572
732,7.32,0.005953339762193241,0.011836224662746994,0.008169037313614767,0.05316916068836215,-0.0866961705446524,-0.06241529579124139
733,7.33,0.006466077323276326,0.017177115550855902,0.005362807636499237,0.04089801264671832,-0.08582392473128589,-0.04473639897238478
734,7.34,0.006656302976090975,0.021227744834274413,0.002335500376578115,0.02907856107666092,-0.08234889503878091,-0.026786569341208717
735,7.35,0.006098243790868068,0.02483286933268023,-0.0006700592170440856,0.015443499914351922,-0.07998099003863082,-0.010998270344632428
736,7.36,0.0050508001088547605,0.02721536874080794,-0.0032660338249459746,0.000936645158605358,-0.07814468842835627,0.003752135611884401
737,7.37,0.0039979975988314025,0.029573768432706198,-0.005614347811337591,-0.011627971726628229,-0.07682594544581027,0.016569576172679082
738,7.38,0.002677315009599143,0.030947542033264743,-0.0072519580679440716,-0.023305638032974973,-0.07574355298007839,0.02850430056222992
739,7.39,0.0010726629856553688,0.03219706371120738,-0.008311394396809994,-0.03614607022065474,-0.07307919465191011,0.0416603662121166
740,7.4,-0.0006340959214636926,0.033015856777902086,-0.00869896580444937,-0.04981069121143933,-0.06929351123874761,0.055682139918714346
741,7.41,-0.0006519106439500707,0.03366743580748134,-0.008549122582091872,-0.05728492370128495,-0.06834957930914842,0.06145042066111036
742,7.42,-0.0009244207839770617,0.03393550203697241,-0.007861514308402255,-0.06131319895586317,-0.06898754390900479,0.0626242912478424
743,7.43,-0.002493989804364212,0.03371721411976966,-0.00669998505214357,-0.06534147421044141,-0.06962550850886116,0.06379816183457443
744,7.44,-0.0046174460237079365,0.03349473673285419,-0.0053164994159876754,-0.06936974946501964,-0.07026347310871753,0.06497203242130646
745,7.45,-0.006773250301924084,0.033499470761217925,-0.0038949793648372076,-0.07339802471959786,-0.07090143770857389,0.0661459030080385
746,7.46,-0.009933069532524553,0.035197807104737806,-0.0024969841441815216,-0.0794737468999985,-0.07160477662279424,0.06726420664834189
747,7.47,-0.02504020829227987,0.05050217636328459,-0.000641652777848222,-0.10658485108154864,-0.07297976844208659,0.06781161786158289
748,7.48,-0.02068813334346023,0.04803729694361421,-4.5137546175834375e-05,-0.11970132159872655,-0.07122720928063836,0.06278335650756994
749,7.49,-0.010680597752270793,0.039482270729816055,7.82903661217197e-05,-0.12493897522639695,-0.06771387509064565,0.05461605598705986
750,7.5,-0.003506320132681255,0.03276087863463353,9.36778242937677e-05,-0.125029763406993,-0.06439581427064868,0.04242097788230651
751,7.51,0.0013493506202015074,0.02723933517170518,9.929414411203631e-05,-0.1220020156422203,-0.06119607148903197,0.02778543007699916
752,7.52,0.004964822671699309,0.02223353411545919,0.00013515214935777564,-0.11622538568676515,-0.05774551027567815,0.013766412871426676
753,7.53,0.00698248474796418,0.017996861694893476,0.00017131961480082447,-0.10906211484288546,-0.05416842669108698,5.8397185473728346e-05
754,7.54,0.007178713302918638,0.014075707282564569,0.0003171503649596922,-0.09921229702103952,-0.05372137966445461,-0.015940867668729344
755,7.55,0.006406368276480602,0.010872999867641921,0.0003793428486568149,-0.08792476001509927,-0.05494938751056468,-0.03316630608764226
756,7.56,0.006131502702995444,0.007263735344699419,0.00016694423250097684,-0.07522539815110643,-0.05035236819848427,-0.0462860702391738
757,7.57,0.005389996374691438,0.0044430571885805785,-0.00013153712951057602,-0.06186195339916911,-0.04301541918796961,-0.0574746401573054
758,7.58,0.0035550587623546766,0.0021019163373126974,-0.00020856472541932406,-0.05016237960583962,-0.039596097353556216,-0.07432944979413998
759,7.59,0.0014864409404337269,0.00027281520301146445,-0.0003142373642357659,-0.03939346309124492,-0.03836803213549635,-0.09435357205704467
760,7.6,0.0007991472263765976,-0.002373002262799656,-0.0006313863271540175,-0.02784773778618132,-0.032621860700459464,-0.1121385661411127
761,7.61,0.00012947207019097938,-0.0047664028392731365,-0.0009955778478680638,-0.015942305118742582,-0.024783544982067463,-0.12888671447740924
762,7.62,-0.0008376827123532861,-0.007765929004316871,-0.0013512262420922014,-0.003360123947072984,-0.02001092911609421,-0.14408781752043245
763,7.63,-0.001931444876288619,-0.010722841185520141,-0.001618943497288655,0.00965418714774713,-0.01719588040150157,-0.15830107270045612
764,7.64,-0.002553819413382131,-0.014034719652233064,-0.0018749192777736989,0.0231849121712474,-0.01377576703780479,-0.17129214547095142
765,7.65,-0.002856302874606428,-0.017622198375060693,-0.0020255969543671063,0.03723536678268098,-0.009746704179744785,-0.1830531887538476
766,7.66,-0.003550172733706192,-0.02190014415141979,-0.0019519413214785957,0.05289835386538936,-0.008009919545688476,-0.1934185167261195
767,7.67,-0.004219728550147442,-0.026469869817872693,-0.0016967242898214311,0.07028048713648162,-0.008716968720693963,-0.2022958506895441
768,7.68,-0.003857584770134479,-0.030752837627180434,-0.0013982000610442183,0.0837963048445767,-0.0060742319018804785,-0.20684125770782646
769,7.69,-0.0029336368885888122,-0.03462007611077907,-0.00101404634879982,0.0934069495468304,-4.8042898355370865e-05,-0.207011200826744
770,7.7,-0.002488820162990042,-0.03701538168652253,-0.0004319593298791574,0.09842329279148417,0.0019533203117738608,-0.20804395197308725
771,7.71,-0.0021361815138795084,-0.03839008373751829,0.0002971781722030482,0.10132692806658468,0.0021038512227502413,-0.20947346885467014
772,7.72,-0.0013348946924633155,-0.03994141887601109,0.0009009629975540632,0.10587148280964136,0.003094126702878782,-0.21032007383111248
773,7.73,-0.00045271844139565436,-0.041099511060645,0.0015465257457812028,0.11123011429652553,0.0045010079566920255,-0.21087749031601594
774,7.74,0.0006909115951176329,-0.042481444067349966,0.002225478207684733,0.1132812786487638,0.007165985216091785,-0.2070978725357937
775,7.75,0.0017741442549904724,-0.04341502633563066,0.0028838873863010067,0.11319103511975692,0.010645512278120049,-0.2005102572824341
776,7.76,0.0026223138538139065,-0.04341862993990081,0.003751284425253021,0.11104947326251456,0.01216143883356498,-0.19237008860160396
777,7.77,0.0032708575316805545,-0.042693725241412364,0.0044101446820444794,0.10794125367313477,0.0127520435672376,-0.1834982988190836
778,7.78,0.003986508539730391,-0.04142906216228043,0.00500317608891768,0.10408179570173563,0.0142287065153434,-0.17437016084242504
779,7.79,0.004556487718305759,-0.03963452903950627,0.005210607219495389,0.09982313448598623,0.016176215099602813,-0.1651058010841954
780,7.8,0.005121602019732248,-0.03701521053526716,0.005260337923748932,0.09253677030259988,0.01964495319479797,-0.15084404532999476
781,7.81,0.00544169793609129,-0.033921241088423995,0.004873292791272373,0.0838288762174354,0.023827920281534583,-0.13423597360119785
782,7.82,0.006006379932603695,-0.02954961343410734,0.004273870030947207,0.0737090066065608,0.030238389224724962,-0.11971670645609445
783,7.83,0.006174733173419746,-0.02499950033830708,0.0033573306220759367,0.06294193864694668,0.03766986419603758,-0.10615487154178424
784,7.84,0.005738626017035344,-0.020643294945925157,0.0021689155231990765,0.052174870687332564,0.0451013391673502,-0.09259303662747398
785,7.85,0.005377518986853742,-0.014719000995689943,0.0012604165240036691,0.03968869887152642,0.05035173249180282,-0.07995780383401721
786,7.86,0.00477949085881363,-0.008609382536053076,0.0003872924298250907,0.02614305671409102,0.05425794215382177,-0.06789362872389877
787,7.87,0.004320652135804208,-0.0023753879120406163,-0.00037018198324122056,0.010740554371767548,0.05981798660229193,-0.05854127088212448
788,7.88,0.003744133111287369,0.0038146903445576627,-0.001039182775334865,-0.0063890680691808255,0.06691631127386732,-0.051711253788497336
789,7.89,0.002313952890005038,0.010612638514519743,-0.0016880500818318351,-0.022642776260928987,0.07086009576650522,-0.04594319511702339
790,7.9,0.0005985070308211302,0.016764288366664718,-0.0023136217445013513,-0.038430618295627036,0.0731260978600514,-0.04073995256713581
791,7.91,-0.000215025323860443,0.02314886602058803,-0.0030406185183584245,-0.053422878194644884,0.08070210032168794,-0.036960777949703934
792,7.92,-0.0010745776909694585,0.028615247840068907,-0.0035572309699567223,-0.06802505385724128,0.09088166481179202,-0.03387984230362512
793,7.93,-0.0022338666091164857,0.034128145726915346,-0.003951004770584754,-0.0808315600983034,0.0956547815807371,-0.034983973903735595
794,7.94,-0.0035206560401889204,0.03865225938857107,-0.003960109453836893,-0.09279769726774907,0.09789769351482387,-0.038046707145192434
795,7.95,-0.004207022169222623,0.043300068880767484,-0.003940106709239628,-0.10568793522072484,0.10124195646353308,-0.04281714162103868
796,7.96,-0.004793669217991709,0.0470832084425297,-0.0035419357418515146,-0.11912932906885836,0.10524309160104003,-0.04860609011535219
797,7.97,-0.006352618288464609,0.0505964101679604,-0.003662261726224844,-0.12711663710547053,0.1064935128630222,-0.06035913427147215
798,7.98,-0.007657209559533993,0.05295870965257616,-0.0032228371371512306,-0.1321593771015539,0.10625887055130713,-0.0753320921002582
799,7.99,-0.007457181461216658,0.054790331368845285,-0.0029610201973738134,-0.13324121801075106,0.10331212578374006,-0.08837841779094854
800,8.0,-0.00661870300254753,0.05564813448793705,-0.002149781299749186,-0.13147009410371002,0.09841190209261337,-0.1000370247886737
801,8.01,-0.006789450754134842,0.05424706927410222,-0.00026374254065981073,-0.12487117430301023,0.09229695334683458,-0.10399548135446357
802,8.02,-0.006718821470796565,0.05209295685800532,0.0021567181931607788,-0.1158706465420327,0.08557773436572269,-0.10412346476438512
803,8.03,-0.006210038677292549,0.04979591609529235,0.005858083615918893,-0.111274585439556,0.08252123902651794,-0.10462629179554528
804,8.04,-0.005105106109683264,0.04745941170653077,0.008783125640318901,-0.10875026214630504,0.0811875863472839,-0.10530543477205798
805,8.05,-0.0034659060707843206,0.0450188069103899,0.010034490439617664,-0.10622593885305408,0.07985393366804988,-0.10598457774857066
806,8.06,-0.0016227989675368106,0.0422651333668142,0.009953042636442203,-0.10370161555980313,0.07852028098881586,-0.10666372072508334
807,8.07,0.0005813804091684565,0.03966152948101789,0.009949730750754667,-0.10038139780116234,0.07874224346050374,-0.11006449749401367
808,8.08,0.002669263136070952,0.03654372282188281,0.009437260603491588,-0.0962646486067713,0.08052106607323031,-0.11618908623366693
809,8.09,0.0030596150207186142,0.030675615388587717,0.007470495795456963,-0.08416595629856549,0.07922305226178186,-0.12303875454121725
810,8.1,0.0030368217440691053,0.023847045465779926,0.004375240986551681,-0.06757157209742949,0.07619206336258874,-0.13029681141889934
811,8.11,0.0034572550609382625,0.015719903114130993,0.0006394844654996077,-0.050010648444328745,0.07362564533308699,-0.13679893452646538
812,8.12,0.003955123609367286,0.007827106173488599,-0.003274170673974136,-0.03191426043283573,0.07131660028733812,-0.14288226915066485
813,8.13,0.0036570059007864928,-0.0011025427395860016,-0.007319618120217743,-0.012893054691363846,0.06765331685368005,-0.14835203882048562
814,8.14,0.003335042743255923,-0.008991791319778893,-0.01074769655923927,0.00660372358357385,0.06329363827081852,-0.15350629265368154
815,8.15,0.003861305426935814,-0.015792141881784384,-0.013641467003652803,0.02239297312938911,0.06113064286251003,-0.1577629075705613
816,8.16,0.00458281933337237,-0.021880888426729896,-0.015635440066026816,0.034449396740223966,0.06117931903492248,-0.16111575880227974
817,8.17,0.0034636824438902467,-0.027787207929980753,-0.01653437217040641,0.04214886582946651,0.05520904811673802,-0.1641331519251966
818,8.18,0.0021947446786653472,-0.032849386193418345,-0.016105232991363662,0.04776294947047688,0.046357906027141134,-0.16698998347807195
819,8.19,0.0012157380114906442,-0.03749955465673953,-0.01501506162001167,0.0520239090812598,0.03867259322421737,-0.16484187862794775
820,8.2,0.0005945332111342255,-0.04175712052529879,-0.013067483986824698,0.05531423515705044,0.031823562222845,-0.1591035935691117
821,8.21,-0.0005792140862268197,-0.04465634316117276,-0.009552759387277255,0.0575272802253446,0.02679640498783244,-0.15640182558411406
822,8.22,-0.0017530915213274443,-0.047146379970878685,-0.005417184260286749,0.058661750772825275,0.02359330908023596,-0.15674022068104834
823,8.23,-0.0015679792547639436,-0.05044145716601229,-0.001792804859150224,0.05979622132030597,0.02039021317263947,-0.1570786157779826
824,8.24,-0.0007123536693242809,-0.05409359412811577,0.0013045015472345016,0.060930691867786664,0.01718711726504299,-0.15741701087491689
825,8.25,0.00034395850708740256,-0.05766893904876489,0.00387762770000093,0.062065162415267335,0.013984021357446504,-0.15775540597185114
826,8.26,0.0013006079997451702,-0.060771782003560385,0.005943761456328121,0.06319963296274803,0.010780925449850022,-0.15809380106878546
827,8.27,0.00019431165017715405,-0.07886841855068322,0.005384036548035041,0.07712641335994141,-0.016426278411711074,-0.13282850781105798
828,8.28,-0.00034563072515154556,-0.08145446070195489,0.007529038213850401,0.08744447375977278,-0.03751652631090538,-0.11059357198932407
829,8.29,-0.0009927390672811768,-0.07215406556805251,0.01227975826245263,0.08949011638836668,-0.04447380084624327,-0.09601500473604506
830,8.3,0.0003584553842425344,-0.056521578349992455,0.013628751377872606,0.0865550000488207,-0.04639627249509919,-0.08743323854266685
831,8.31,0.0009519365388738384,-0.046004058589543546,0.013694216721019444,0.07996226581268519,-0.04993528285224781,-0.07763315587586725
832,8.32,0.0010262554883822485,-0.03892099184826288,0.012823841093905861,0.0699681137388235,-0.05536258043243486,-0.06629278438322657
833,8.33,0.001357924925064168,-0.03081494346580903,0.010469487815498741,0.0570542399598126,-0.058111833425443675,-0.05762811510609815
834,8.34,0.0017203952101404393,-0.023460532891360703,0.0076998834527082765,0.04249802272165525,-0.05935468633816472,-0.05046852832519542
835,8.35,0.0018963645551230896,-0.017777591854713753,0.004735048511011534,0.031710969634191705,-0.06072492692545745,-0.039416727680365984
836,8.36,0.0018198538247746613,-0.012880033142951454,0.0020613705800660515,0.02470062657159753,-0.0622228102177014,-0.02446492095166206
837,8.37,0.0015147659794967547,-0.006905708572251002,-0.00035831812009959763,0.017518462521633946,-0.06490004000172712,-0.01293770199564738
838,8.38,0.0010227651963044997,-0.001106586827833992,-0.0017465164741314368,0.010256440848567515,-0.0681253972822262,-0.003002136328448143
839,8.39,-0.0006258692237015753,0.004417699347933072,-0.0023222797888360243,0.000509776511122593,-0.0711710585737671,0.00766300888576904
840,8.4,-0.0019187788662895322,0.009962728105326689,-0.0020302194782293405,-0.00992680122600729,-0.07375875547999859,0.018416463848719592
841,8.41,0.0003749651768394002,0.016618145986106,-0.0004030112711081676,-0.011610304464118386,-0.07262041648964221,0.02537900840062957
842,8.42,-0.0006619641713207875,0.02275883651459061,0.0011514701833261684,-0.017335873436123368,-0.07497219704071069,0.036001164365791205
843,8.43,-0.003150179079088569,0.028648332512253065,0.00242616626061515,-0.027113220754919055,-0.08082248348372408,0.05029172536393999
844,8.44,-0.004298075468539524,0.035075087083583936,0.00338447947282704,-0.03754619359169355,-0.0837504851727955,0.06282800868976654
845,8.45,-0.00458095765646165,0.04150306120413287,0.003918100095471614,-0.04863873753632434,-0.0837386156399975,0.07359945700522277
846,8.46,-0.00545893532427826,0.04749123936180648,0.00408155238076049,-0.05821432265728179,-0.0874871619860012,0.08377423668232939
847,8.47,-0.006272639238680431,0.05278053006283881,0.0038260316729707994,-0.06626076454634361,-0.09502632835441144,0.09334755520190287
848,8.48,-0.004742924186129924,0.05659303147160833,0.0028810962049014583,-0.07164279083995258,-0.0967689827132665,0.10055876077493316
849,8.49,-0.0026542666605582207,0.05907384548062267,0.0015125450257420523,-0.07569520545356417,-0.09561902899540006,0.10659121143879803
850,8.5,-0.0012140711585978056,0.060748370841286856,-0.00012835178489005623,-0.07650397672383097,-0.09495120427695876,0.10921050298875676
851,8.51,-0.00018984238085045834,0.061654062428868395,-0.0018055962715288478,-0.07406391066621601,-0.09476628058196092,0.1084111699978856
852,8.52,0.00043595683194174784,0.06191349238097442,-0.0033822690663577277,-0.07232156430405601,-0.0942495018958296,0.10702363850065964
853,8.53,0.0008155223789663431,0.061472797113796857,-0.004753032731480621,-0.07140656861902019,-0.09333921209999356,0.10493862571447744
854,8.54,0.002231752743631374,0.05925948541003785,-0.006139919612900519,-0.06997435508613199,-0.09166237437399558,0.10029777931822437
855,8.55,0.003634741891326347,0.05599806208487611,-0.007081291471147201,-0.06825510213495968,-0.08956012698188842,0.09423852674029767
856,8.56,0.0041608967295911296,0.052322449942991435,-0.007692931586921194,-0.06708281437095086,-0.08842269652296504,0.08668413759720167
857,8.57,0.004285354058180051,0.04799646522206352,-0.007753148076065279,-0.06620634291001504,-0.0878070699832212,0.07832113068157187
858,8.58,0.004301169930211703,0.042890385995388,-0.00720101179272958,-0.06532987144907923,-0.08719144344347736,0.06995812376594207
859,8.59,0.0043250085440409486,0.036872526225583034,-0.006561845036685587,-0.06208186843793041,-0.08678459034782686,0.06131195814723989
860,8.6,0.0042089760523361785,0.030300539540484634,-0.005696550049908121,-0.05757253614639873,-0.08648877606925542,0.05251519096342323
861,8.61,0.0058950853420089615,0.02165888385611349,-0.004279563159573414,-0.053423869871273,-0.08526129943830266,0.04763218748448832
862,8.62,0.00680654294447389,0.01322622301734203,-0.002890921955814624,-0.04945052512084098,-0.08358093715500342,0.0446516837943286
863,8.63,0.0058896115841620845,0.005993309954551249,-0.0018204651814453094,-0.045477180370408966,-0.08190057487170421,0.04167118010416887
864,8.64,0.0026529492373227395,0.00018284871625942958,-0.0011064162793608418,-0.03918140235235392,-0.07904778273837636,0.035758658590455294
865,8.65,-0.004066027194036393,-0.003482523368098043,-0.0008070128477872789,-0.025611225917529182,-0.07252266900867782,0.02066237876990775
866,8.66,-0.004772882664864222,-0.011549136561458988,1.8648912497983656e-05,-0.015735989303907457,-0.0656178777532717,0.013241316276375764
867,8.67,-0.0024793274364435704,-0.021548270359131334,0.0009306781196551962,-0.009563089788408072,-0.05833264885699141,0.013510836910313831
868,8.68,0.0008518689690177948,-0.031391963095217405,0.0013573729374229898,-0.004192720265140426,-0.05418296278940162,0.010953440441701944
869,8.69,0.0013604678532650135,-0.03907132863623289,0.0015569286522514577,0.0005069611581401017,-0.0524397642593599,0.0060620690532636225
870,8.7,8.679469707027244e-05,-0.04495513727512721,0.0015127721984991725,0.0046297069816080855,-0.05273460531026522,-0.0008327467488888959
871,8.71,-0.0008010091094639528,-0.049784561910417774,0.0009764163662787765,0.008226562365811709,-0.04972562338034612,-0.005321847774697696
872,8.72,-0.0013294623428503176,-0.053791417017127835,0.0002482129819148099,0.01113646123525673,-0.04240094648654565,-0.006668428391555664
873,8.73,-0.0018892354967532633,-0.05729290782089588,-0.0004848900154307455,0.01787169298709252,-0.03943343363685351,-0.0056221301754240385
874,8.74,-0.002499221289135214,-0.059718579883737716,-0.001057206258040282,0.026551324710822263,-0.038680648212296366,-0.0033595421150729643
875,8.75,-0.0021351741552659118,-0.0616730942207334,-0.0015582211514655162,0.03520072031190806,-0.033215348225167286,9.532144913647603e-05
876,8.76,-0.001975902709470773,-0.062328161483108026,-0.0017305859350225695,0.043836179467859934,-0.025577954235859318,0.004099729091457407
877,8.77,-0.0024412740180083585,-0.06206771763896726,-0.0015810063319549126,0.04818782476319308,-0.02132616066953624,0.0073657793380005904
878,8.78,-0.0031157552502079373,-0.06054749388188188,-0.001104360937622055,0.05003865632868133,-0.019050819931708932,0.010200789774465098
879,8.79,-0.0030130831748845684,-0.05740032473962124,-0.000690974956354169,0.048125419922493376,-0.014856288237581491,0.013982408895597818
880,8.8,-0.0028649199473526465,-0.05329452975059197,-1.6060658359628565e-05,0.04408937633678331,-0.009579397677576942,0.018297883336860908
881,8.81,-0.003062090098764645,-0.04877492626502018,0.0009309807581605123,0.04386494852773424,-0.0072905064532616205,0.022064706391279915
882,8.82,-0.0033287802374907015,-0.04379225897298676,0.002097102827206475,0.045500952228722094,-0.006460043476127947,0.025563735316405982
883,8.83,-0.0030321612344874713,-0.0386146569792997,0.0033548308478644527,0.046382158090909335,-0.0038407031507235218,0.03049653827780487
884,8.84,-0.0026557014761854863,-0.03297809253858562,0.00456448844449334,0.04687918814047029,-0.0003108628561449226,0.03615910128512925
885,8.85,-0.002742816280836792,-0.026628991276013564,0.0056973983261792895,0.04869875564013843,0.0004099854198536938,0.0402454513528502
886,8.86,-0.002718122196018942,-0.019931312794511713,0.00656753839059637,0.05120388992612087,-0.00032526997123424623,0.04351473628607279
887,8.87,-0.0018361316853394843,-0.013725519556844321,0.007093326792979903,0.053696689798539414,0.0022397655308388385,0.049576496232764715
888,8.88,-0.0005651154788360062,-0.0075673511141531695,0.007275944791146397,0.05617719466446615,0.008094547865711411,0.05842180954751551
889,8.89,0.0005670629397560383,-2.6317469378416003e-05,0.007476956115447585,0.05303339725667301,0.013325970580258945,0.06622038666353368
